File: XPS/LG4X-result/HT-1-C1s.csv
#No of rows lightened (2D detector)1(if not using 2D detector, value is 1 and can be ignored!)
raw_x,raw_y,corrected x,data-bg,sum_components,bg,sum_fit,C=C,pi-pi*,pi-pi*2,C-C,C-O,C=O
295.0,852.0,295.6685,0.0,-792.486,852.0,59.5136,21.0376,26.4408,0.175768,3.16967,4.43964,4.2502
294.9,905.0,295.569,53.0753,-790.071,851.925,61.8533,21.4195,27.8769,0.418452,3.23166,4.53548,4.37127
294.8,922.0,295.468,70.2504,-787.14,851.75,64.6099,21.8119,29.4422,0.92832,3.29551,4.63445,4.49762
294.7,882.0,295.369,30.3933,-783.592,851.607,68.0149,22.2152,31.1531,1.91909,3.36128,4.7367,4.62957
294.6,925.0,295.268,73.5408,-779.064,851.459,72.3948,22.6298,33.0293,3.69691,3.42905,4.84238,4.76745
294.5,968.0,295.1685,116.811,-773.041,851.189,78.1477,23.056,35.0932,6.63634,3.49891,4.95163,4.91164
294.4,950.0,295.069,99.1175,-765.218,850.882,85.6648,23.4945,37.3711,11.1011,3.57094,5.06462,5.06251
294.3,951.0,294.968,100.401,-755.409,850.599,95.1906,23.9456,39.8938,17.304,3.64524,5.18152,5.22051
294.2,951.0,294.869,100.686,-743.662,850.314,106.652,24.4098,42.6966,25.1348,3.72189,5.30252,5.38608
294.1,995.0,294.768,145.035,-730.447,849.965,119.518,24.8876,45.8207,34.0212,3.80101,5.42781,5.55973
294.0,986.0,294.6685,136.435,-716.779,849.565,132.787,25.3796,49.3137,42.9111,3.8827,5.5576,5.74199
293.9,1000.0,294.569,150.842,-704.013,849.158,145.144,25.8863,53.2299,50.4355,3.96707,5.6921,5.93344
293.8,1008.0,294.468,159.283,-693.417,848.717,155.3,26.4084,57.6318,55.2394,4.05424,5.83154,6.13472
293.7,1027.0,294.369,178.762,-685.857,848.238,162.381,26.9464,62.5896,56.3778,4.14434,5.97618,6.34653
293.6,1047.0,294.268,199.299,-681.465,847.701,166.235,27.5011,68.1827,53.6183,4.23751,6.12626,6.56961
293.5,1024.0,294.1685,176.833,-679.656,847.167,167.511,28.073,74.4988,47.5187,4.33388,6.28207,6.8048
293.4,999.0,294.069,152.3,-679.229,846.7,167.471,28.663,81.6346,39.243,4.43361,6.4439,7.05298
293.3,1047.0,293.968,200.802,-678.568,846.198,167.63,29.2717,89.6944,30.1999,4.53685,6.61207,7.31515
293.2,1084.0,293.869,238.425,-676.206,845.575,169.369,29.9001,98.7894,21.6568,4.64377,6.78692,7.5924
293.1,1018.0,293.768,173.009,-671.325,844.991,173.666,30.5489,109.036,14.4721,4.75456,6.96879,7.88592
293.0,1048.0,293.6685,203.544,-663.45,844.456,181.006,31.2191,120.551,9.01183,4.8694,7.15808,8.19702
292.9,1083.0,293.569,239.172,-652.365,843.828,191.463,31.9116,133.451,5.22927,4.98849,7.35519,8.52715
292.8,1067.0,293.468,223.829,-638.317,843.171,204.854,32.6273,147.849,2.82758,5.11206,7.56055,8.87792
292.7,1076.0,293.369,233.478,-621.622,842.522,220.9,33.3675,163.841,1.42474,5.24032,7.77465,9.25111
292.6,1120.0,293.268,278.205,-602.461,841.795,239.334,34.1331,181.512,0.668963,5.37352,7.99797,9.64872
292.5,1133.0,293.1685,292.014,-581.033,840.986,259.953,34.9253,200.919,0.292695,5.51193,8.23106,10.0729
292.4,1123.0,293.069,282.83,-557.559,840.17,282.61,35.7455,222.089,0.119337,5.65581,8.47449,10.5263
292.3,1137.0,292.968,297.654,-532.15,839.346,307.196,36.5949,245.01,0.0453397,5.80548,8.72889,11.0114
292.2,1151.0,292.869,312.52,-504.877,838.48,333.602,37.4749,269.624,0.016052,5.96123,8.99493,11.5316
292.1,1203.0,292.768,365.483,-475.817,837.517,361.7,38.3871,295.821,0.00529575,6.12343,9.27332,12.0902
292.0,1256.0,292.6685,419.597,-445.085,836.403,391.318,39.333,323.434,0.00162806,6.29241,9.56485,12.6913
291.9,1269.0,292.569,433.809,-412.963,835.191,422.229,40.3143,352.236,0.000466402,6.46859,9.87035,13.3393
291.8,1262.0,292.468,428.032,-379.818,833.968,454.149,41.3328,381.934,0.000124508,6.65237,10.1907,14.0394
291.7,1273.0,292.369,440.265,-345.998,832.735,486.737,42.3904,412.178,3.09726e-05,6.84422,10.527,14.7974
291.6,1384.0,292.268,552.674,-311.733,831.326,519.593,43.4891,442.559,7.1797e-06,7.0446,10.8802,15.6201
291.5,1380.0,292.1685,550.24,-277.489,829.76,552.271,44.6311,472.619,1.55089e-06,7.25405,11.2514,16.5151
291.4,1443.0,292.069,614.894,-243.82,828.106,584.286,45.8186,501.861,3.12177e-07,7.47314,11.642,17.4914
291.3,1427.0,291.968,600.619,-211.25,826.381,615.131,47.0543,529.761,5.85554e-08,7.70246,12.0534,18.5593
291.2,1474.0,291.869,649.394,-180.318,824.606,644.288,48.3405,555.787,1.02348e-08,7.94267,12.4869,19.7308
291.1,1550.0,291.768,727.348,-151.402,822.652,671.25,49.6803,579.411,1.66701e-09,8.1945,12.9442,21.02
291.0,1565.0,291.6685,744.437,-125.024,820.563,695.539,51.0765,600.133,2.53013e-10,8.45872,13.4272,22.4431
290.9,1571.0,291.569,752.562,-101.715,818.438,716.723,52.5325,617.497,3.57845e-11,8.73615,13.9377,24.0195
290.8,1607.0,291.468,790.753,-81.8108,816.247,734.436,54.0516,631.107,4.71619e-12,9.02773,14.478,25.7716
290.7,1556.0,291.369,741.929,-65.6758,814.071,748.395,55.6376,640.647,5.79209e-13,9.33444,15.0503,27.7256
290.6,1561.0,291.268,749.045,-53.5411,811.955,758.413,57.2944,645.892,6.62864e-14,9.65738,15.6572,29.9126
290.5,1574.0,291.1685,764.193,-45.3971,809.807,764.409,59.0264,646.715,7.06903e-15,9.99772,16.3016,32.3685
290.4,1634.0,291.069,826.451,-41.1345,807.549,766.414,60.8381,643.097,7.02493e-16,10.3568,16.9867,35.135
290.3,1509.0,290.968,703.623,-40.8041,805.377,764.572,62.7346,635.125,6.50534e-17,10.736,17.7159,38.2606
290.2,1566.0,290.869,762.705,-44.155,803.295,759.14,64.7211,622.989,5.61363e-18,11.1368,18.4931,41.8002
290.1,1516.0,290.768,714.802,-50.7223,801.198,750.475,66.8035,606.972,4.51403e-19,11.5611,19.3226,45.8162
290.0,1468.0,290.6685,668.766,-60.2055,799.234,739.028,68.9881,587.442,3.38244e-20,12.0108,20.2093,50.3777
289.9,1510.0,290.569,712.727,-71.9489,797.273,725.324,71.2817,564.835,2.3618e-21,12.4878,21.1585,55.5604
289.8,1481.0,290.468,685.713,-85.3427,795.287,709.945,73.6915,539.638,1.53674e-22,12.9946,22.1762,61.4446
289.7,1479.0,290.369,685.659,-99.83,793.341,693.511,76.2257,512.369,9.31765e-24,13.5337,23.2692,68.1133
289.6,1493.0,290.268,701.629,-114.715,791.371,676.656,78.8929,483.561,5.2645e-25,14.1079,24.4452,75.6487
289.5,1516.0,290.1685,726.656,-129.336,789.344,660.008,81.7027,453.744,2.77175e-26,14.7205,25.7126,84.1276
289.4,1449.0,290.069,661.627,-143.21,787.373,644.163,84.6653,423.426,1.35987e-27,15.3749,27.0812,93.6155
289.3,1399.0,289.968,613.437,-155.893,785.563,629.67,87.792,393.081,6.21709e-29,16.0751,28.5622,104.16
289.2,1374.0,289.869,590.145,-166.847,783.855,617.007,91.0952,363.137,2.64864e-30,16.8256,30.1682,115.781
289.1,1419.0,289.768,636.887,-175.546,782.113,606.567,94.5885,333.967,1.05149e-31,17.6311,31.9135,128.467
289.0,1392.0,289.6685,611.66,-181.697,780.34,598.644,98.2867,305.884,3.88984e-33,18.4972,33.8149,142.161
288.9,1409.0,289.569,630.423,-185.153,778.577,593.424,102.206,279.14,1.34093e-34,19.43,35.8913,156.757
288.8,1399.0,289.468,622.201,-185.817,776.799,590.982,106.365,253.924,4.30751e-36,20.4364,38.1651,172.092
288.7,1372.0,289.369,596.931,-183.787,775.069,591.281,110.783,230.367,1.28941e-37,21.524,40.6619,187.945
288.6,1348.0,289.268,574.594,-179.227,773.406,594.179,115.482,208.546,3.59671e-39,22.7014,43.4118,204.038
288.5,1410.0,289.1685,638.316,-172.244,771.684,599.439,120.486,188.488,9.34897e-41,23.978,46.4501,220.037
288.4,1341.0,289.069,571.033,-163.215,769.967,606.752,125.823,170.18,2.26448e-42,25.3645,49.8182,235.566
288.3,1348.0,288.968,579.666,-152.58,768.334,615.754,131.523,153.575,5.11116e-44,26.8726,53.5654,250.218
288.2,1349.0,288.869,582.316,-140.626,766.684,626.058,137.62,138.598,1.07502e-45,28.5151,57.7503,263.575
288.1,1361.0,288.768,595.989,-127.729,765.011,637.282,144.15,125.156,2.10697e-47,30.3062,62.4429,275.227
288.0,1391.0,288.6685,627.726,-114.191,763.274,649.083,151.157,113.142,3.84812e-49,32.2615,67.7275,284.796
287.9,1390.0,288.569,628.509,-100.303,761.491,661.188,158.687,102.44,6.54914e-51,34.3977,73.706,291.958
287.8,1430.0,288.468,670.353,-86.2238,759.647,673.424,166.795,92.9328,1.03864e-52,36.7329,80.5018,296.461
287.7,1418.0,288.369,660.241,-72.0177,757.759,685.741,175.54,84.5032,1.53495e-54,39.2865,88.2654,298.146
287.6,1473.0,288.268,717.197,-57.5643,755.803,698.239,184.992,77.0381,2.11382e-56,42.0787,97.1802,296.95
287.5,1495.0,288.1685,741.267,-42.5559,753.733,711.177,195.229,70.4304,2.71261e-58,45.1308,107.47,292.917
287.4,1450.0,288.069,698.311,-26.7059,751.689,724.983,206.34,64.5805,3.2438e-60,48.4644,119.407,286.191
287.3,1474.0,287.968,724.33,-9.4139,749.67,740.256,218.427,59.3973,3.61465e-62,52.1014,133.32,277.01
287.2,1516.0,287.869,768.449,10.2043,747.551,757.755,231.609,54.7985,3.7534e-64,56.0634,149.597,265.687
287.1,1550.0,287.768,804.682,33.0709,745.318,778.389,246.021,50.7102,3.63186e-66,60.3707,168.695,252.591
287.0,1605.0,287.6685,862.048,60.2335,742.952,803.185,261.821,47.0674,3.27476e-68,65.0424,191.125,238.13
286.9,1617.0,287.569,876.516,92.7706,740.484,833.254,279.191,43.8127,2.75154e-70,70.0945,217.435,222.721
286.8,1599.0,287.468,860.983,131.709,738.017,869.727,298.347,40.8961,2.15437e-72,75.5399,248.17,206.774
286.7,1709.0,287.369,973.587,178.259,735.413,913.672,319.538,38.2742,1.57184e-74,81.387,283.8,190.673
286.6,1758.0,287.268,1025.42,233.418,732.575,965.993,343.062,35.9095,1.06867e-76,87.6383,324.626,174.757
286.5,1834.0,287.1685,1104.45,297.746,729.552,1027.3,369.267,33.7697,6.77058e-79,94.2901,370.654,159.317
286.4,1905.0,287.069,1178.69,371.452,726.311,1097.76,398.57,31.8269,3.99718e-81,101.331,421.453,144.582
286.3,1962.0,286.968,1239.12,454.136,722.879,1177.01,431.467,30.0573,2.19901e-83,108.74,476.024,130.726
286.2,1922.0,286.869,1202.59,544.647,719.413,1264.06,468.552,28.4402,1.12732e-85,116.487,532.717,117.864
286.1,2068.0,286.768,1352.21,641.519,715.786,1357.31,510.544,26.9581,5.38534e-88,124.532,589.211,106.059
286.0,2176.0,286.6685,1464.21,742.908,711.788,1454.7,558.314,25.5956,2.39732e-90,132.825,642.629,95.3325
285.9,2237.0,286.569,1529.46,846.455,707.538,1553.99,612.924,24.3398,9.94452e-93,141.302,689.759,85.6678
285.8,2329.0,286.468,1625.94,950.116,703.059,1653.18,675.684,23.1792,3.84404e-95,149.892,727.398,77.0216
285.7,2507.0,286.369,1808.82,1052.73,698.183,1750.92,748.222,22.104,1.38465e-97,158.512,752.748,69.331
285.6,2527.0,286.268,1833.99,1154.08,693.012,1847.09,832.579,21.1056,4.64767e-100,167.07,763.814,62.5206
285.5,2641.0,286.1685,1953.36,1255.57,687.636,1943.2,931.355,20.1765,1.45371e-102,175.465,759.695,56.5089
285.4,2727.0,286.069,2045.04,1360.8,681.96,2042.76,1047.91,19.3102,4.23709e-105,183.594,740.728,51.2128
285.3,2895.0,285.968,2219.09,1475.59,675.907,2151.5,1186.67,18.5008,1.15081e-107,191.347,708.435,46.5511
285.2,2970.0,285.869,2300.51,1608.16,669.491,2277.65,1353.56,17.7433,2.91262e-110,198.613,665.288,42.4475
285.1,3122.0,285.768,2459.27,1769.53,662.735,2432.27,1556.76,17.0331,6.86929e-113,205.285,614.355,38.8315
285.0,3313.0,285.6685,2657.53,1974.55,655.471,2630.02,1807.86,16.3663,1.50968e-115,211.258,558.892,35.6396
284.9,3582.0,285.569,2934.47,2243.25,647.533,2890.78,2123.82,15.7391,3.09176e-118,216.436,501.965,32.8156
284.8,3810.0,285.468,3171.13,2603.92,638.866,3242.79,2530.43,15.1485,5.90026e-121,220.733,446.171,30.3101
284.7,4280.0,285.369,3650.82,3099.7,629.182,3728.88,3068.66,14.5916,1.04926e-123,224.076,393.475,28.0801
284.6,5053.0,285.268,4435.3,3801.08,617.704,4418.78,3807.06,14.0657,1.73877e-126,226.406,345.167,26.0887
284.5,5912.0,285.1685,5308.13,4830.18,603.872,5434.05,4866.57,13.5685,2.68501e-129,227.682,301.926,24.3043
284.4,7443.0,285.069,6856.4,6410.38,586.604,6996.98,6469.37,13.0979,3.86364e-132,227.882,263.928,22.6997
284.3,10357.0,284.968,9794.03,8941.76,562.969,9504.73,9012.83,12.652,5.18076e-135,227.002,230.993,21.252
284.2,14370.0,284.869,13840.6,12998.9,529.418,13528.3,13068.4,12.2291,6.47346e-138,225.059,202.712,19.9413
284.1,19862.0,284.768,19379.7,18883.6,482.261,19365.9,18934.6,11.8275,7.53746e-141,222.085,178.567,18.7508
284.0,25946.0,284.6685,25527.5,25435.8,418.514,25854.3,25449.1,11.4458,8.17825e-144,218.133,158.003,17.6661
283.9,29840.0,284.569,29499.6,29394.9,340.401,29735.3,29353.7,11.0827,8.26879e-147,213.272,140.488,16.675
283.8,28438.0,284.468,28179.5,27741.3,258.523,27999.8,27640.2,10.737,7.79057e-150,207.582,125.54,15.7669
283.7,22021.0,284.369,21833.5,21219.3,187.528,21406.9,21067.6,10.4075,6.83979e-153,201.157,112.738,14.9325
283.6,13932.0,284.268,13795,13637.5,136.952,13774.4,13454.4,10.0933,5.5958e-156,194.098,101.728,14.164
283.5,7796.0,284.1685,7689.55,7912.19,106.454,8018.65,7716.67,9.79329,4.26607e-159,186.512,92.2107,13.4545
283.4,4350.0,284.069,4260.51,4497.53,89.4906,4587.02,4302.27,9.50674,3.03068e-162,178.51,83.9426,12.798
283.3,2621.0,283.968,2541.16,2650.07,79.8354,2729.9,2461.56,9.23281,2.00631e-165,170.2,76.7221,12.1893
283.2,1774.0,283.869,1700.19,1648.49,73.8146,1722.3,1469.63,8.97074,1.23766e-168,161.691,70.3845,11.6237
283.1,1309.0,283.768,1239.36,1078.77,69.6418,1148.42,910.722,8.71986,7.11465e-172,153.083,64.7946,11.0973
283.0,1007.0,283.6685,940.452,736.637,66.5475,803.185,579.786,8.47953,3.8111e-175,144.472,59.8411,10.6064
282.9,780.0,283.569,715.804,521.433,64.1964,585.629,375.857,8.24914,1.90236e-178,135.944,55.4322,10.1479
282.8,627.0,283.468,564.621,380.922,62.3788,443.3,246.487,8.02816,8.84874e-182,127.575,51.4915,9.71889
282.7,508.0,283.369,447.057,286.313,60.9427,347.256,162.736,7.81607,3.83545e-185,119.431,47.9557,9.31693
282.6,388.0,283.268,328.158,220.823,59.8422,280.665,107.773,7.61239,1.54917e-188,111.569,44.7713,8.93973
282.5,324.0,283.1685,265,174.321,59.0002,233.322,71.3957,7.41668,5.83076e-192,104.03,41.8935,8.58527
282.4,299.0,283.069,240.718,140.541,58.2823,198.823,47.2078,7.22852,2.04503e-195,96.8507,39.2842,8.25175
282.3,245.0,282.968,187.325,115.376,57.6747,173.051,31.1011,7.04752,6.68372e-199,90.0533,36.9113,7.93753
282.2,220.0,282.869,162.822,96.123,57.1777,153.301,20.3863,6.87332,2.03556e-202,83.6529,34.747,7.64112
282.1,200.0,282.768,143.257,81.0273,56.7432,137.77,13.2798,6.70557,5.77691e-206,77.6562,32.7677,7.36119
282.0,184.0,282.6685,127.641,68.8858,56.3586,125.244,8.58821,6.54397,1.52776e-209,72.0629,30.9528,7.09653
281.9,166.0,282.569,109.979,58.8736,56.0213,114.895,5.50951,6.38821,3.76494e-213,66.8665,29.2846,6.84604
281.8,161.0,282.468,105.284,50.4382,55.7157,106.154,3.50358,6.238,8.64587e-217,62.0559,27.7478,6.60872
281.7,170.0,282.369,114.596,43.225,55.4036,98.6286,2.20714,6.09309,1.85014e-220,57.6158,26.3289,6.38364
281.6,144.0,282.268,88.8852,36.9297,55.1148,92.0445,1.37669,5.95322,3.68933e-224,53.5283,25.0162,6.16997
281.5,132.0,282.1685,77.1209,31.3287,54.8791,86.2079,0.849824,5.81816,6.85546e-228,49.7736,23.7994,5.96695
281.4,140.0,282.069,85.3515,26.3315,54.6485,80.98,0.518951,5.6877,1.18706e-231,46.3302,22.6692,5.77387
281.3,132.0,281.968,77.5828,21.8422,54.4172,76.2594,0.313379,5.56162,1.91537e-235,43.1765,21.6178,5.59009
281.2,119.0,281.869,64.7849,17.7552,54.2151,71.9703,0.187077,5.43972,2.87992e-239,40.2907,20.6378,5.41502
281.1,101.0,281.768,46.9435,13.9981,54.0565,68.0546,0.11037,5.32183,4.03509e-243,37.6512,19.7231,5.24811
281.0,108.0,281.6685,54.0869,10.5533,53.9131,64.4664,0.0643348,5.20776,5.26833e-247,35.2375,18.8679,5.08886
280.9,101.0,281.569,47.2308,7.39896,53.7692,61.1682,0.0370429,5.09735,6.40971e-251,33.0298,18.0672,4.9368
280.8,104.0,281.468,50.3693,4.49835,53.6307,58.129,0.0210638,4.99045,7.26692e-255,31.0097,17.3164,4.79151
280.7,96.0,281.369,42.5011,1.82357,53.4989,55.3224,0.0118264,4.88691,7.67729e-259,29.1597,16.6115,4.65258
280.6,90.0,281.268,36.6134,-0.661124,53.3866,52.7254,0.00655515,4.78658,7.55809e-263,27.4639,15.9488,4.51964
280.5,76.0,281.1685,22.6976,-2.98443,53.3024,50.3179,0.00358634,4.68933,6.93366e-267,25.9077,15.325,4.39237
280.4,85.0,281.069,31.775,-5.14289,53.225,48.0821,0.00193641,4.59505,5.92733e-271,24.4777,14.7371,4.27042
280.3,77.0,280.968,23.8539,-7.14385,53.1461,46.0022,0.00103172,4.5036,4.72173e-275,23.1617,14.1824,4.15352
280.2,73.0,280.869,19.9161,-9.01993,53.0839,44.064,0.00054236,4.41487,3.50502e-279,21.9487,13.6585,4.04138
280.1,91.0,280.768,37.9983,-10.7469,53.0017,42.2548,0.000281272,4.32876,2.42452e-283,20.8289,13.1631,3.93375
280.0,79.0,280.6685,26.0892,-12.3474,52.9108,40.5633,0.000143891,4.24517,1.56281e-287,19.7934,12.6942,3.83038
279.9,72.0,280.569,19.1535,-13.8673,52.8465,38.9793,7.26047e-05,4.16399,9.38714e-292,18.8342,12.2499,3.73106
279.8,81.0,280.468,28.2207,-15.2858,52.7793,37.4935,3.6131e-05,4.08513,5.2542e-296,17.9442,11.8286,3.63557
279.7,78.0,280.369,25.2967,-16.6055,52.7033,36.0978,1.77314e-05,4.00851,2.74048e-300,17.1169,11.4286,3.54373
279.6,75.0,280.268,22.3643,-17.8509,52.6357,34.7847,8.58061e-06,3.93404,1.33196e-304,16.3467,11.0486,3.45533
279.5,75.0,280.1685,22.4279,-19.0245,52.5721,33.5476,4.09425e-06,3.86164,6.03258e-309,15.6284,10.6873,3.37022
279.4,74.0,280.069,21.4903,-20.1293,52.5097,32.3804,1.92611e-06,3.79123,2.54602e-313,14.9575,10.3434,3.28823
279.3,66.0,279.968,13.54,-21.1823,52.46,31.2777,8.93323e-07,3.72274,1.00129e-317,14.3299,10.0158,3.20921
279.2,73.0,279.869,20.5884,-22.177,52.4116,30.2346,4.08444e-07,3.6561,2.77e-322,13.7419,9.70359,3.13302
279.1,75.0,279.768,22.6498,-23.1035,52.3502,29.2467,1.84089e-07,3.59125,0.0,13.1901,9.40575,3.05953
279.0,73.0,279.6685,20.7114,-23.9788,52.2886,28.3098,8.17846e-08,3.52812,0.0,12.6717,9.12141,2.9886
278.9,62.0,279.569,9.75463,-24.8249,52.2454,27.4205,3.58129e-08,3.46665,0.0,12.184,8.84978,2.92011
278.8,60.0,279.468,7.77952,-25.6452,52.2205,26.5753,1.54566e-08,3.40678,0.0,11.7244,8.59012,2.85397
278.7,63.0,279.369,10.8059,-26.4229,52.1941,25.7712,6.57466e-09,3.34846,0.0,11.291,8.34172,2.79006
278.6,56.0,279.268,3.82667,-27.1678,52.1733,25.0055,2.75613e-09,3.29163,0.0,10.8817,8.10394,2.72828
278.5,68.0,279.1685,15.8546,-27.8698,52.1454,24.2756,1.13861e-09,3.23624,0.0,10.4946,7.8762,2.66853
278.4,72.0,279.069,19.9054,-28.5154,52.0946,23.5792,4.6354e-10,3.18225,0.0,10.1283,7.65792,2.61074
278.3,56.0,278.968,3.93922,-29.1466,52.0608,22.9142,1.85957e-10,3.1296,0.0,9.78121,7.4486,2.55481
278.2,62.0,278.869,9.95895,-29.7624,52.0411,22.2786,7.351e-11,3.07826,0.0,9.45198,7.24775,2.50066
278.1,57.0,278.768,4.98015,-30.3491,52.0198,21.6707,2.86312e-11,3.02817,0.0,9.13939,7.05492,2.44823
278.0,61.0,278.6685,9.0,-30.9112,52.0,21.0888,1.09874e-11,2.97931,0.0,8.84234,6.86968,2.39743
277.9,52.0,278.569,0.0,-31.4687,52.0,20.5313,4.15435e-12,2.93162,0.0,8.55978,6.69165,2.3482
277.8,67.0,278.468,15.0,-32.0032,52.0,19.9968,1.54618e-12,2.88508,0.0,8.29077,6.52045,2.30048
277.7,69.0,278.369,17.0,-32.516,52.0,19.484,5.69771e-13,2.83964,0.0,8.03446,6.35574,2.2542
277.6,65.0,278.268,13.0,-33.0082,52.0,18.9918,2.06389e-13,2.79527,0.0,7.79003,6.1972,2.20931
277.5,63.0,278.1685,11.0,-33.481,52.0,18.519,7.26975e-14,2.75194,0.0,7.55676,6.04452,2.16575
277.4,56.0,278.069,4.0,-33.9355,52.0,18.0645,2.46587e-14,2.70961,0.0,7.33396,5.89741,2.12347
277.3,66.0,277.968,14.0,-34.3727,52.0,17.6273,1.02467e-14,2.66826,0.0,7.12101,5.75561,2.08242
277.2,68.0,277.869,16.0,-34.7934,52.0,17.2066,3.3133e-15,2.62785,0.0,6.91734,5.61887,2.04256
277.1,55.0,277.768,3.0,-35.1985,52.0,16.8015,0.0,2.58835,0.0,6.72239,5.48694,2.00383
277.0,58.0,277.6685,6.0,-35.5888,52.0,16.4112,0.0,2.54975,0.0,6.53568,5.35961,1.96619