File: XPS/LG4X-result/HT-2-C1s.csv
#No of rows lightened (2D detector)1(if not using 2D detector, value is 1 and can be ignored!)
raw_x,raw_y,corrected x,data-bg,sum_components,bg,sum_fit,C=C,pi-pi,pi-pi2,C-C,C-O,C=O
295.0,852.0,295.6685,0.0,-781.364,852.0,70.6364,20.3411,36.2877,0.152896,0.10245,11.2176,2.53469
294.9,905.0,295.569,53.0753,-778.566,851.925,73.3589,20.7103,38.1336,0.344697,0.104424,11.4594,2.60635
294.8,922.0,295.468,70.2504,-775.303,851.75,76.4466,21.0898,40.1293,0.730765,0.106456,11.7092,2.6811
294.7,882.0,295.369,30.3933,-771.544,851.607,80.0631,21.4797,42.2918,1.45686,0.108547,11.9671,2.75912
294.6,925.0,295.268,73.5408,-767.022,851.459,84.437,21.8806,44.6403,2.73121,0.110701,12.2336,2.8406
294.5,968.0,295.1685,116.811,-761.336,851.189,89.8525,22.2928,47.197,4.81494,0.112919,12.5091,2.92575
294.4,950.0,295.069,99.1175,-754.272,850.882,96.6101,22.7167,49.9871,7.98228,0.115205,12.794,3.0148
294.3,951.0,294.968,100.401,-745.649,850.599,104.951,23.1529,53.0395,12.4441,0.117561,13.0886,3.10798
294.2,951.0,294.869,100.686,-735.363,850.314,114.951,23.6018,56.3872,18.243,0.119991,13.3935,3.20557
294.1,995.0,294.768,145.035,-723.544,849.965,126.421,24.0638,60.0678,25.1494,0.122496,13.7092,3.30784
294.0,986.0,294.6685,136.435,-710.722,849.565,138.843,24.5395,64.1242,32.6032,0.125081,14.0361,3.41509
293.9,1000.0,294.569,150.842,-697.748,849.158,151.41,25.0295,68.6047,39.7458,0.127749,14.3747,3.52766
293.8,1008.0,294.468,159.283,-685.553,848.717,163.165,25.5343,73.5644,45.5638,0.130503,14.7257,3.64591
293.7,1027.0,294.369,178.762,-675.006,848.238,173.231,26.0546,79.0645,49.1189,0.133348,15.0896,3.77022
293.6,1047.0,294.268,199.299,-666.638,847.701,181.063,26.5909,85.1738,49.794,0.136286,15.4671,3.90101
293.5,1024.0,294.1685,176.833,-660.55,847.167,186.617,27.1439,91.9678,47.4683,0.139323,15.8589,4.03876
293.4,999.0,294.069,152.3,-656.311,846.7,190.389,27.7144,99.5293,42.5529,0.142463,16.2657,4.18395
293.3,1047.0,293.968,200.802,-652.905,846.198,193.294,28.303,107.948,35.8718,0.14571,16.6882,4.33714
293.2,1084.0,293.869,238.425,-649.135,845.575,196.44,28.9106,117.318,28.4366,0.14907,17.1274,4.49894
293.1,1018.0,293.768,173.009,-644.109,844.991,200.882,29.538,127.739,21.1982,0.152548,17.5839,4.66999
293.0,1048.0,293.6685,203.544,-637.032,844.456,207.425,30.186,139.313,14.8601,0.156148,18.0589,4.85102
292.9,1083.0,293.569,239.172,-627.281,843.828,216.547,30.8556,152.139,9.79583,0.159879,18.5532,5.04282
292.8,1067.0,293.468,223.829,-614.757,843.171,228.413,31.5477,166.315,6.07241,0.163744,19.068,5.24628
292.7,1076.0,293.369,233.478,-599.556,842.522,242.966,32.2634,181.928,3.53981,0.167752,19.6044,5.46235
292.6,1120.0,293.268,278.205,-581.771,841.795,260.024,33.0037,199.052,1.94042,0.171909,20.1635,5.6921
292.5,1133.0,293.1685,292.014,-561.614,840.986,279.372,33.7698,217.742,1.00026,0.176223,20.7468,5.93673
292.4,1123.0,293.069,282.83,-539.363,840.17,300.807,34.5629,238.026,0.484874,0.180702,21.3555,6.19755
292.3,1137.0,292.968,297.654,-515.188,839.346,324.157,35.3842,259.9,0.221026,0.185354,21.9912,6.47602
292.2,1151.0,292.869,312.52,-489.209,838.48,349.27,36.2352,283.321,0.094745,0.190189,22.6555,6.77378
292.1,1203.0,292.768,365.483,-461.522,837.517,375.995,37.1173,308.201,0.0381917,0.195215,23.3501,7.09266
292.0,1256.0,292.6685,419.597,-432.242,836.403,404.161,38.032,334.402,0.014477,0.200444,24.0769,7.43472
291.9,1269.0,292.569,433.809,-401.629,835.191,433.562,38.9809,361.73,0.00516048,0.205887,24.8378,7.80227
291.8,1262.0,292.468,428.032,-370.02,833.968,463.948,39.9657,389.936,0.00172981,0.211554,25.6351,8.19791
291.7,1273.0,292.369,440.265,-337.72,832.735,495.015,40.9884,418.713,0.000545265,0.21746,26.471,8.62461
291.6,1384.0,292.268,552.674,-304.917,831.326,526.409,42.0509,447.701,0.000161627,0.223617,27.348,9.0857
291.5,1380.0,292.1685,550.24,-272.031,829.76,557.729,43.1552,476.489,4.50527e-05,0.23004,28.269,9.58502
291.4,1443.0,292.069,614.894,-239.572,828.106,588.534,44.3035,504.63,1.18094e-05,0.236745,29.2368,10.1269
291.3,1427.0,291.968,600.619,-208.024,826.381,618.357,45.4984,531.643,2.91092e-06,0.243748,30.2545,10.7164
291.2,1474.0,291.869,649.394,-177.892,824.606,646.714,46.7422,557.035,6.74735e-07,0.251067,31.3258,11.3592
291.1,1550.0,291.768,727.348,-149.528,822.652,673.124,48.0378,580.311,1.47074e-07,0.258722,32.4543,12.062
291.0,1565.0,291.6685,744.437,-123.437,820.563,697.126,49.388,600.994,3.01465e-08,0.266734,33.6442,12.8324
290.9,1571.0,291.569,752.562,-100.146,818.438,718.291,50.796,618.641,5.81081e-09,0.275125,34.8999,13.6796
290.8,1607.0,291.468,790.753,-79.9982,816.247,736.249,52.265,632.859,1.05326e-09,0.283919,36.2264,14.614
290.7,1556.0,291.369,741.929,-63.3761,814.071,750.695,53.7987,643.326,1.79529e-10,0.293144,37.6288,15.6479
290.6,1561.0,291.268,749.045,-50.5435,811.955,761.411,55.4009,649.798,2.8776e-11,0.302827,39.1132,16.796
290.5,1574.0,291.1685,764.193,-41.5345,809.807,768.272,57.0758,652.122,4.33737e-12,0.313,40.6858,18.0753
290.4,1634.0,291.069,826.451,-36.2939,807.549,771.255,58.8279,650.243,6.14783e-13,0.323697,42.3538,19.5064
290.3,1509.0,290.968,703.623,-34.9362,805.377,770.44,60.6618,644.205,8.19437e-14,0.334953,44.1248,21.1136
290.2,1566.0,290.869,762.705,-37.2807,803.295,766.014,62.5829,634.152,1.02709e-14,0.346809,46.0073,22.9257
290.1,1516.0,290.768,714.802,-42.9372,801.198,758.26,64.5968,620.316,1.2106e-15,0.35931,48.0108,24.9772
290.0,1468.0,290.6685,668.766,-51.6813,799.234,747.552,66.7095,603.016,1.34181e-16,0.372501,50.1457,27.3088
289.9,1510.0,290.569,712.727,-62.9315,797.273,734.341,68.9275,582.635,1.39856e-17,0.386436,52.4234,29.9689
289.8,1481.0,290.468,685.713,-76.1461,795.287,719.141,71.2581,559.611,1.37079e-18,0.401172,54.8567,33.0139
289.7,1479.0,290.369,685.659,-90.8258,793.341,702.515,73.7089,534.421,1.26345e-19,0.416771,57.4598,36.5088
289.6,1493.0,290.268,701.629,-106.318,791.371,685.053,76.2884,507.555,1.09508e-20,0.433303,60.2485,40.5277
289.5,1516.0,290.1685,726.656,-121.983,789.344,667.361,79.0058,479.511,8.92545e-22,0.450844,63.2404,45.1525
289.4,1449.0,290.069,661.627,-137.338,787.373,650.035,81.871,450.769,6.84093e-23,0.469479,66.4552,50.4706
289.3,1399.0,289.968,613.437,-151.91,785.563,633.653,84.895,421.783,4.93059e-24,0.4893,69.915,56.5712
289.2,1374.0,289.869,590.145,-165.106,783.855,618.749,88.0897,392.965,3.34181e-25,0.510412,73.6445,63.5388
289.1,1419.0,289.768,636.887,-176.312,782.113,605.801,91.4683,364.683,2.12992e-26,0.53293,77.6717,71.4444
289.0,1392.0,289.6685,611.66,-185.127,780.34,595.214,95.045,337.249,1.27657e-27,0.556981,82.028,80.3343
288.9,1409.0,289.569,630.423,-191.275,778.577,587.303,98.8359,310.919,7.19488e-29,0.582711,86.749,90.2162
288.8,1399.0,289.468,622.201,-194.52,776.799,582.279,102.858,285.891,3.81331e-30,0.61028,91.875,101.045
288.7,1372.0,289.369,596.931,-194.828,775.069,580.241,107.131,262.31,1.90055e-31,0.639868,97.4515,112.708
288.6,1348.0,289.268,574.594,-192.242,773.406,581.163,111.676,240.269,8.90751e-33,0.671681,103.531,125.015
288.5,1410.0,289.1685,638.316,-186.781,771.684,584.903,116.517,219.816,3.92583e-34,0.705948,110.172,137.692
288.4,1341.0,289.069,571.033,-178.764,769.967,591.203,121.679,200.958,1.62707e-35,0.742931,117.443,150.38
288.3,1348.0,288.968,579.666,-168.615,768.334,599.719,127.193,183.671,6.34132e-37,0.782929,125.422,162.652
288.2,1349.0,288.869,582.316,-156.641,766.684,610.043,133.09,167.901,2.32409e-38,0.826281,134.196,174.03
288.1,1361.0,288.768,595.989,-143.264,765.011,621.747,139.406,153.576,8.00984e-40,0.873379,143.87,184.021
288.0,1391.0,288.6685,627.726,-128.843,763.274,634.432,146.184,140.611,2.59594e-41,0.924671,154.561,192.151
287.9,1390.0,288.569,628.509,-113.719,761.491,647.772,153.469,128.91,7.91159e-43,0.980678,166.403,198.01
287.8,1430.0,288.468,670.353,-98.0807,759.647,661.567,161.312,118.371,2.26742e-44,1.042,179.554,201.288
287.7,1418.0,288.369,660.241,-81.9831,757.759,675.775,169.773,108.894,6.11082e-46,1.10936,194.194,201.806
287.6,1473.0,288.268,717.197,-65.2585,755.803,690.545,178.917,100.379,1.5487e-47,1.18357,210.529,199.536
287.5,1495.0,288.1685,741.267,-47.5158,753.733,706.217,188.821,92.7314,3.69089e-49,1.26561,228.797,194.603
287.4,1450.0,288.069,698.311,-28.364,751.689,723.325,199.57,85.8601,8.27172e-51,1.35666,249.269,187.269
287.3,1474.0,287.968,724.33,-7.09914,749.67,742.571,211.265,79.682,1.74325e-52,1.45811,272.251,177.914
287.2,1516.0,287.869,768.449,17.2394,747.551,764.79,224.019,74.1206,3.45479e-54,1.57164,298.087,166.992
287.1,1550.0,287.768,804.682,45.5985,745.318,790.916,237.963,69.1067,6.43847e-56,1.69931,327.154,154.993
287.0,1605.0,287.6685,862.048,78.9794,742.952,821.931,253.249,64.5781,1.12835e-57,1.84364,359.853,142.406
286.9,1617.0,287.569,876.516,118.336,740.484,858.82,270.056,60.4792,1.85952e-59,2.00775,396.597,129.68
286.8,1599.0,287.468,860.983,164.499,738.017,902.517,288.588,56.7609,2.88178e-61,2.19559,437.772,117.2
286.7,1709.0,287.369,973.587,218.431,735.413,953.844,309.089,53.3798,4.19969e-63,2.41217,483.692,105.271
286.6,1758.0,287.268,1025.42,280.856,732.575,1013.43,331.843,50.2977,5.75537e-65,2.66399,534.51,94.1169
286.5,1834.0,287.1685,1104.45,352.057,729.552,1081.61,357.187,47.4812,7.41701e-67,2.95968,590.105,83.8761
286.4,1905.0,287.069,1178.69,431.958,726.311,1158.27,385.52,44.901,8.98841e-69,3.31093,649.919,74.6176
286.3,1962.0,286.968,1239.12,519.82,722.879,1242.7,417.319,42.5315,1.02432e-70,3.73425,712.763,66.3514
286.2,1922.0,286.869,1202.59,614.008,719.413,1333.42,453.152,40.3503,1.09771e-72,4.25385,776.621,59.0439
286.1,2068.0,286.768,1352.21,712.326,715.786,1428.11,493.708,38.3378,1.10621e-74,4.90727,838.527,52.6319
286.0,2176.0,286.6685,1464.21,811.908,711.788,1523.7,539.819,36.4767,1.04831e-76,5.75566,894.611,47.0346
285.9,2237.0,286.569,1529.46,909.212,707.538,1616.75,592.5,34.752,9.34196e-79,6.90296,940.432,42.1637
285.8,2329.0,286.468,1625.94,1001.2,703.059,1704.26,653.003,33.1504,7.82863e-81,8.52927,971.65,37.9305
285.7,2507.0,286.369,1808.82,1086.47,698.183,1784.66,722.882,31.6603,6.16926e-83,10.9447,984.918,34.2508
285.6,2527.0,286.268,1833.99,1165.78,693.012,1858.79,804.091,30.2712,4.57171e-85,14.6654,978.715,31.0474
285.5,2641.0,286.1685,1953.36,1242.97,687.636,1930.61,899.12,28.974,3.18584e-87,20.5021,953.76,28.252
285.4,2727.0,286.069,2045.04,1325.24,681.96,2007.2,1011.19,27.7606,2.0877e-89,29.6262,912.812,25.8048
285.3,2895.0,285.968,2219.09,1422.44,675.907,2098.35,1144.57,26.6238,1.2865e-91,43.5486,859.957,23.6548
285.2,2970.0,285.869,2300.51,1546.41,669.491,2215.9,1304.97,25.5571,7.45508e-94,63.9264,799.692,21.7585
285.1,3122.0,285.768,2459.27,1710.51,662.735,2373.25,1500.33,24.5548,4.0625e-96,92.1293,736.153,20.0791
285.0,3313.0,285.6685,2657.53,1929.88,655.471,2585.35,1741.91,23.6116,2.08177e-98,128.581,672.655,18.586
284.9,3582.0,285.569,2934.47,2222.33,647.533,2869.86,2046.29,22.7229,1.00316e-100,172.039,611.555,17.253
284.8,3810.0,285.468,3171.13,2611.31,638.866,3250.18,2438.81,21.8844,4.54579e-103,219.109,554.322,16.0586
284.7,4280.0,285.369,3650.82,3132.96,629.182,3762.14,2959.99,21.0925,1.93708e-105,264.356,501.722,14.9842
284.6,5053.0,285.268,4435.3,3850.05,617.704,4467.76,3678.19,20.3435,7.76216e-108,301.198,454.016,14.0146
284.5,5912.0,285.1685,5308.13,4878.74,603.872,5482.62,4715.25,19.6346,2.92494e-110,323.456,411.134,13.1364
284.4,7443.0,285.069,6856.4,6442.08,586.604,7028.68,6297.48,18.9626,1.03646e-112,327.087,372.811,12.3387
284.3,10357.0,284.968,9794.03,8949.22,562.969,9512.18,8832.16,18.3252,3.45369e-115,311.411,338.679,11.6118
284.2,14370.0,284.869,13840.6,12989.4,529.418,13518.8,12902.5,17.7199,1.08222e-117,279.324,308.33,10.9477
284.1,19862.0,284.768,19379.7,18865.9,482.261,19348.2,18803,17.1446,3.18894e-120,236.402,281.357,10.3392
284.0,25946.0,284.6685,25527.5,25405,418.514,25823.5,25350.5,16.5973,8.8364e-123,189.284,257.372,9.7803
283.9,29840.0,284.569,29499.6,29361.8,340.401,29702.2,29296.8,16.0762,2.30252e-125,143.976,236.018,9.26578
283.8,28438.0,284.468,28179.5,27751.4,258.523,28009.9,27663.9,15.5796,5.64198e-128,104.678,216.977,8.79101
283.7,22021.0,284.369,21833.5,21281.2,187.528,21468.7,21171.9,15.1059,1.30004e-130,73.3987,199.964,8.352
283.6,13932.0,284.268,13795,13693.8,136.952,13830.7,13573.2,14.6539,2.81698e-133,50.2509,184.729,7.94523
283.5,7796.0,284.1685,7689.55,7918.36,106.454,8024.82,7797.84,14.222,5.73995e-136,34.1299,171.056,7.56761
283.4,4350.0,284.069,4260.51,4459.3,89.4906,4548.79,4345.59,13.8093,1.09985e-138,23.4208,158.753,7.2164
283.3,2621.0,283.968,2541.16,2590.5,79.8354,2670.33,2485.85,13.4144,1.98177e-141,16.5242,147.658,6.8892
283.2,1774.0,283.869,1700.19,1582.65,73.8146,1656.47,1487.08,13.0365,3.35796e-144,12.1333,137.627,6.58385
283.1,1309.0,283.768,1239.36,1012.82,69.6418,1082.46,925.642,12.6745,5.35052e-147,9.30889,128.536,6.29844
283.0,1007.0,283.6685,940.452,672.611,66.5475,739.158,593.087,12.3275,8.01706e-150,7.43587,120.277,6.03127
282.9,780.0,283.569,715.804,460.034,64.1964,524.23,387.561,11.9947,1.12962e-152,6.13784,112.756,5.78082
282.8,627.0,283.468,564.621,322.458,62.3788,384.837,256.529,11.6754,1.49676e-155,5.19411,105.893,5.5457
282.7,508.0,283.369,447.057,230.98,60.9427,291.923,171.137,11.3688,1.86495e-158,4.47742,99.6153,5.3247
282.6,388.0,283.268,328.158,168.766,59.8422,228.608,114.643,11.0742,2.18516e-161,3.91365,93.8611,5.11669
282.5,324.0,283.1685,265,125.643,59.0002,184.644,76.8979,10.7911,2.40767e-164,3.45808,88.5759,4.92068
282.4,299.0,283.069,240.718,95.2993,58.2823,153.582,51.5331,10.5187,2.49465e-167,3.08242,83.7116,4.73576
282.3,245.0,282.968,187.325,73.5793,57.6747,131.254,34.4423,10.2567,2.43065e-170,2.76774,79.2262,4.56111
282.2,220.0,282.869,162.822,57.7308,57.1777,114.908,22.925,10.0044,2.22707e-173,2.50083,75.0823,4.39597
282.1,200.0,282.768,143.257,45.9554,56.7432,102.699,15.1782,9.76133,1.91886e-176,2.27206,71.2473,4.23967
282.0,184.0,282.6685,127.641,37.0123,56.3586,93.3709,9.98618,9.52713,1.55472e-179,2.07425,67.6918,4.09158
281.9,166.0,282.569,109.979,30.0465,56.0213,86.0678,6.52349,9.30132,1.18457e-182,1.90186,64.39,3.95114
281.8,161.0,282.468,105.284,24.4834,55.7157,80.1991,4.22817,9.08352,8.48728e-186,1.75062,61.319,3.81783
281.7,170.0,282.369,114.596,19.9534,55.4036,75.357,2.71737,8.87333,5.7184e-189,1.61711,58.4581,3.69117
281.6,144.0,282.268,88.8852,16.1447,55.1148,71.2595,1.73077,8.67042,3.6231e-192,1.49861,55.789,3.57073
281.5,132.0,282.1685,77.1209,12.8315,54.8791,67.7106,1.09198,8.47443,2.15866e-195,1.3929,53.2952,3.4561
281.4,140.0,282.069,85.3515,9.926,54.6485,64.5745,0.68219,8.28507,1.20945e-198,1.29818,50.9621,3.34692
281.3,132.0,281.968,77.5828,7.33885,54.4172,61.756,0.421838,8.10203,6.3722e-202,1.21295,48.7764,3.24285
281.2,119.0,281.869,64.7849,4.97362,54.2151,59.1887,0.258106,7.92503,3.15711e-205,1.13597,46.726,3.14356
281.1,101.0,281.768,46.9435,2.76886,54.0565,56.8253,0.15622,7.75381,1.47092e-208,1.06618,44.8004,3.04878
281.0,108.0,281.6685,54.0869,0.719052,53.9131,54.6321,0.0935073,7.58811,6.4445e-212,1.00271,42.9896,2.95823
280.9,101.0,281.569,47.2308,-1.18489,53.7692,52.5844,0.0553383,7.4277,2.65514e-215,0.944814,41.2848,2.87166
280.8,104.0,281.468,50.3693,-2.96711,53.6307,50.6636,0.0323731,7.27236,1.02869e-218,0.891842,39.6782,2.78885
280.7,96.0,281.369,42.5011,-4.64318,53.4989,48.8557,0.0187171,7.12187,3.74783e-222,0.843248,38.1623,2.70958
280.6,90.0,281.268,36.6134,-6.23708,53.3866,47.1495,0.0106932,6.97604,1.28403e-225,0.798559,36.7305,2.63364
280.5,76.0,281.1685,22.6976,-7.76651,53.3024,45.5359,0.00603571,6.83466,4.13684e-229,0.757362,35.3769,2.56086
280.4,85.0,281.069,31.775,-9.21782,53.225,44.0072,0.00336537,6.69757,1.25332e-232,0.7193,34.0959,2.49106
280.3,77.0,280.968,23.8539,-10.589,53.1461,42.5571,0.00185337,6.56458,3.5707e-236,0.68406,32.8825,2.42408
280.2,73.0,280.869,19.9161,-11.9043,53.0839,41.1797,0.00100801,6.43553,9.56631e-240,0.651368,31.732,2.35977
280.1,91.0,280.768,37.9983,-13.1317,53.0017,39.87,0.000541364,6.31028,2.41009e-243,0.620982,30.6402,2.29799
280.0,79.0,280.6685,26.0892,-14.2872,52.9108,38.6235,0.000287071,6.18866,5.70983e-247,0.592688,29.6033,2.23861
279.9,72.0,280.569,19.1535,-15.4104,52.8465,37.4361,0.000150288,6.07055,1.27207e-250,0.566298,28.6176,2.18151
279.8,81.0,280.468,28.2207,-16.4753,52.7793,36.304,7.76694e-05,5.9558,2.665e-254,0.541643,27.6799,2.12656
279.7,78.0,280.369,25.2967,-17.4797,52.7033,35.2237,3.96218e-05,5.8443,5.25029e-258,0.518573,26.7871,2.07367
279.6,75.0,280.268,22.3643,-18.4436,52.6357,34.192,1.99499e-05,5.73591,9.72675e-262,0.496955,25.9364,2.02274
279.5,75.0,280.1685,22.4279,-19.3659,52.5721,33.2061,9.91371e-06,5.63052,1.69454e-265,0.476669,25.1253,1.97365
279.4,74.0,280.069,21.4903,-20.2464,52.5097,32.2633,4.86175e-06,5.52803,2.77609e-269,0.457607,24.3513,1.92634
279.3,66.0,279.968,13.54,-21.099,52.46,31.361,2.35278e-06,5.42832,4.27677e-273,0.439671,23.6123,1.88071
279.2,73.0,279.869,20.5884,-21.9147,52.4116,30.4969,1.12351e-06,5.3313,6.19578e-277,0.422775,22.9061,1.83669
279.1,75.0,279.768,22.6498,-22.6813,52.3502,29.6688,5.2936e-07,5.23686,8.44065e-281,0.406839,22.2309,1.79419
279.0,73.0,279.6685,20.7114,-23.4138,52.2886,28.8748,2.46084e-07,5.14493,1.08132e-284,0.391792,21.585,1.75315
278.9,62.0,279.569,9.75463,-24.1323,52.2454,28.113,1.12863e-07,5.0554,1.30266e-288,0.377567,20.9665,1.71351
278.8,60.0,279.468,7.77952,-24.8388,52.2205,27.3817,5.10667e-08,4.96821,1.47574e-292,0.364107,20.3741,1.6752
278.7,63.0,279.369,10.8059,-25.515,52.1941,26.6791,2.27939e-08,4.88326,1.57211e-296,0.351357,19.8063,1.63816
278.6,56.0,279.268,3.82667,-26.1695,52.1733,26.0038,1.00364e-08,4.80047,1.57492e-300,0.339268,19.2618,1.60234
278.5,68.0,279.1685,15.8546,-26.7909,52.1454,25.3545,4.35909e-09,4.71979,1.48365e-304,0.327794,18.7392,1.56769
278.4,72.0,279.069,19.9054,-27.3649,52.0946,24.7297,1.86749e-09,4.64113,1.31433e-308,0.316895,18.2375,1.53414
278.3,56.0,278.968,3.93922,-27.9326,52.0608,24.1282,7.8913e-10,4.56443,1.0949e-312,0.306532,17.7556,1.50166
278.2,62.0,278.869,9.95895,-28.4922,52.0411,23.5489,3.2889e-10,4.48962,8.577217e-317,0.296672,17.2924,1.47021
278.1,57.0,278.768,4.98015,-29.0292,52.0198,22.9906,1.35191e-10,4.41664,6.413e-321,0.287281,16.847,1.43973
278.0,61.0,278.6685,9.0,-29.5476,52.0,22.4524,5.48099e-11,4.34543,0.0,0.27833,16.4185,1.41019
277.9,52.0,278.569,0.0,-30.0667,52.0,21.9333,2.19122e-11,4.27594,0.0,0.269793,16.006,1.38156
277.8,67.0,278.468,15.0,-30.5676,52.0,21.4324,8.64148e-12,4.20811,0.0,0.261644,15.6088,1.35378
277.7,69.0,278.369,17.0,-31.0512,52.0,20.9488,3.35818e-12,4.14188,0.0,0.253859,15.2262,1.32684
277.6,65.0,278.268,13.0,-31.5183,52.0,20.4817,1.28814e-12,4.07722,0.0,0.246418,14.8573,1.30069
277.5,63.0,278.1685,11.0,-31.9696,52.0,20.0304,4.88557e-13,4.01406,0.0,0.2393,14.5017,1.27532
277.4,56.0,278.069,4.0,-32.4059,52.0,19.5941,1.80533e-13,3.95236,0.0,0.232487,14.1586,1.25067
277.3,66.0,277.968,14.0,-32.8277,52.0,19.1723,6.60545e-14,3.89207,0.0,0.225962,13.8275,1.22674
277.2,68.0,277.869,16.0,-33.2358,52.0,18.7642,2.56305e-14,3.83316,0.0,0.219708,13.5078,1.20348
277.1,55.0,277.768,3.0,-33.6308,52.0,18.3692,9.32786e-15,3.77559,0.0,0.213711,13.199,1.18089
277.0,58.0,277.6685,6.0,-34.0132,52.0,17.9868,3.01888e-15,3.7193,0.0,0.207957,12.9007,1.15892