File: XPS/LG4X-result/HT-C1s.csv
#No of rows lightened (2D detector)1(if not using 2D detector, value is 1 and can be ignored!)
raw_x,raw_y,corrected x,data-bg,sum_components,bg,sum_fit,C=C,pi-pi*,pi-pi*2,C-C,C-O,C=O,O-C=O
294.9,53.0753,295.571,22.6821,7.21043,30.3933,37.6037,18.5801,1.2733,6.42018,5.30351,5.67792,0.0320206,0.316642
294.8,70.2504,295.471,39.8571,11.5359,30.3933,41.9291,18.92,1.68813,9.74699,5.40999,5.80386,0.0329083,0.327219
294.7,30.3933,295.371,-3.55271e-15,17.6232,30.3933,48.0165,19.2694,2.2235,14.6977,5.51973,5.93403,0.0338337,0.338339
294.6,73.5408,295.271,43.1499,25.9219,30.3909,56.3128,19.6284,2.90955,21.6885,5.63289,6.06861,0.0347991,0.350041
294.5,116.811,295.1708,86.4272,36.7299,30.3839,67.1137,19.9977,3.78244,30.9781,5.74959,6.20782,0.0358067,0.362364
294.4,99.1175,295.071,68.7421,50.024,30.3754,80.3994,20.3774,4.88514,42.5028,5.87,6.35185,0.036859,0.375356
294.3,100.401,294.971,70.0329,65.3195,30.3678,95.6873,20.7681,6.26814,55.7289,5.99426,6.50094,0.0379588,0.389065
294.2,100.686,294.871,70.326,81.6111,30.3602,111.971,21.1701,7.99022,69.5905,6.12256,6.65533,0.039109,0.403545
294.1,145.035,294.771,114.685,97.4556,30.3501,127.806,21.5839,10.119,82.5733,6.25506,6.81527,0.0403128,0.418857
294.0,136.435,294.6708,106.097,111.217,30.338,141.555,22.0099,12.7313,92.9639,6.39196,6.98102,0.0415735,0.435065
293.9,150.842,294.571,120.517,121.435,30.3257,151.761,22.4487,15.9134,99.2171,6.53345,7.15288,0.0428948,0.452242
293.8,159.283,294.471,128.971,127.213,30.3121,157.525,22.9007,19.7613,100.337,6.67975,7.33114,0.0442808,0.470468
293.7,178.762,294.371,148.466,128.473,30.2969,158.77,23.3666,24.3794,96.1411,6.83108,7.51613,0.0457358,0.489829
293.6,199.299,294.271,169.02,126.009,30.2796,156.288,23.8468,29.8805,87.3075,6.98768,7.70819,0.0472644,0.510425
293.5,176.833,294.1708,146.571,121.298,30.2624,151.56,24.3419,36.3841,75.1955,7.14978,7.90768,0.0488718,0.532363
293.4,152.3,294.071,122.053,116.155,30.2478,146.403,24.8527,44.0142,61.4967,7.31767,8.11498,0.0505636,0.555765
293.3,200.802,293.971,170.57,112.347,30.2318,142.579,25.3797,52.897,47.8473,7.49162,8.33052,0.0523458,0.580765
293.2,238.425,293.871,208.214,111.278,30.2112,141.489,25.9236,63.1579,35.5195,7.67193,8.55473,0.0542251,0.607513
293.1,173.009,293.771,142.817,113.818,30.192,144.01,26.4852,74.9172,25.2682,7.85893,8.78807,0.0562087,0.636181
293.0,203.544,293.6708,173.369,120.324,30.1748,150.499,27.0653,88.2863,17.3379,8.05294,9.03106,0.0583047,0.666958
292.9,239.172,293.571,209.018,130.756,30.1539,160.91,27.6646,103.362,11.5836,8.25433,9.28423,0.0605219,0.70006
292.8,223.829,293.471,193.697,144.822,30.132,174.954,28.2841,120.224,7.63575,8.46348,9.54815,0.0628698,0.735733
292.7,233.478,293.371,203.368,162.133,30.1103,192.243,28.9246,138.923,5.05149,8.68081,9.82343,0.0653591,0.774254
292.6,278.205,293.271,248.119,182.305,30.0857,212.391,29.5871,159.484,3.41876,8.90676,10.1107,0.0680016,0.815941
292.5,292.014,293.1708,261.956,205,30.0579,235.058,30.2727,181.893,2.4079,9.14179,10.4108,0.0708104,0.861159
292.4,282.83,293.071,252.8,229.928,30.0298,259.958,30.9824,206.098,1.78267,9.38641,10.7243,0.0738,0.910328
292.3,297.654,292.971,267.653,256.838,30.0014,286.84,31.7173,232.001,1.38772,9.64116,11.0522,0.0769866,0.963933
292.2,312.52,292.871,282.549,285.495,29.9714,315.466,32.4787,259.455,1.12768,9.90661,11.3952,0.0803881,1.02254
292.1,365.483,292.771,335.545,315.651,29.9377,345.589,33.2678,288.265,0.946965,10.1834,11.7544,0.0840248,1.08681
292.0,419.597,292.6708,389.699,347.036,29.8982,376.934,34.0861,318.186,0.814224,10.4721,12.1307,0.0879194,1.15752
291.9,433.809,292.571,403.954,379.339,29.8549,409.194,34.9349,348.921,0.71194,10.7736,12.5253,0.0920976,1.2356
291.8,428.032,292.471,398.221,412.21,29.8111,442.021,35.8158,380.128,0.630169,11.0886,12.9394,0.0965881,1.32215
291.7,440.265,292.371,410.498,445.264,29.767,475.031,36.7305,411.425,0.563028,11.4178,13.3742,0.101424,1.41848
291.6,552.674,292.271,522.958,478.093,29.7161,507.809,37.6807,442.395,0.506827,11.7623,13.8312,0.106642,1.52623
291.5,550.24,292.1708,520.581,510.255,29.6592,539.914,38.6683,472.592,0.459101,12.123,14.3119,0.112286,1.64737
291.4,614.894,292.071,585.295,541.293,29.5989,570.892,39.6952,501.557,0.418115,12.5009,14.8178,0.118405,1.78438
291.3,600.619,291.971,571.084,570.749,29.5358,600.285,40.7636,528.825,0.38259,12.8972,15.3509,0.125055,1.94041
291.2,649.394,291.871,619.923,598.173,29.4709,627.644,41.8757,553.939,0.351557,13.3132,15.9131,0.132302,2.11951
291.1,727.348,291.771,697.949,623.142,29.399,652.542,43.0339,576.459,0.324263,13.7501,16.5066,0.140225,2.32705
291.0,744.437,291.6708,715.115,645.264,29.322,674.586,44.2409,595.982,0.300112,14.2096,17.1336,0.148914,2.57031
290.9,752.562,291.571,723.319,664.189,29.2435,693.433,45.4994,612.147,0.278627,14.6931,17.7967,0.158479,2.8594
290.8,790.753,291.471,761.591,679.637,29.1625,708.8,46.8124,624.649,0.259419,15.2026,18.4987,0.169052,3.20878
290.7,741.929,291.371,712.847,691.393,29.0821,720.475,48.1831,633.247,0.242171,15.7398,19.2428,0.180801,3.63943
290.6,749.045,291.271,720.041,699.33,29.004,728.334,49.6149,637.777,0.226619,16.307,20.0322,0.193938,4.18223
290.5,764.193,291.1708,735.269,703.417,28.9246,732.341,51.1115,638.148,0.212545,16.9066,20.8708,0.208755,4.88276
290.4,826.451,291.071,797.61,703.727,28.841,732.569,52.6768,634.355,0.199763,17.5411,21.7626,0.225666,5.80771
290.3,703.623,290.971,674.863,700.437,28.7607,729.198,54.3152,626.47,0.188117,18.2134,22.7122,0.245307,7.05292
290.2,762.705,290.871,734.021,693.845,28.6839,722.529,56.0313,614.648,0.177475,18.9267,23.7247,0.268698,8.75227
290.1,714.802,290.771,686.196,684.38,28.6065,712.986,57.83,599.115,0.167723,19.6846,24.8055,0.297549,11.0858
290.0,668.766,290.6708,640.232,672.577,28.5341,701.111,59.7168,580.165,0.158763,20.4911,25.9611,0.334786,14.2839
289.9,712.727,290.571,684.266,659.093,28.4619,687.555,61.6975,558.149,0.150511,21.3506,27.1983,0.385457,18.6238
289.8,685.713,290.471,657.324,644.663,28.3887,673.051,63.7784,533.466,0.142892,22.2682,28.5249,0.458196,24.4129
289.7,685.659,290.371,657.342,630.056,28.317,658.373,65.9664,506.548,0.135844,23.2495,29.9495,0.567542,31.9554
289.6,701.629,290.271,673.384,616.024,28.2445,644.269,68.2691,477.851,0.12931,24.3009,31.4819,0.737416,41.4989
289.5,726.656,290.1708,698.486,603.223,28.1697,631.393,70.6945,447.839,0.123241,25.4297,33.1332,1.00609,53.1666
289.4,661.627,290.071,633.53,592.12,28.097,620.217,73.2515,416.974,0.117593,26.6441,34.9156,1.43285,66.8809
289.3,613.437,289.971,585.406,582.936,28.0305,610.967,75.9499,385.704,0.112327,27.9536,36.8431,2.10645,82.2973
289.2,590.145,289.871,562.177,575.612,27.968,603.58,78.8002,354.451,0.107411,29.3689,38.9316,3.1547,98.7661
289.1,636.887,289.771,608.983,569.818,27.9041,597.722,81.8141,323.606,0.102813,30.9024,41.1992,4.75422,115.343
289.0,611.66,289.6708,583.82,565.015,27.839,592.854,85.0044,293.518,0.0985057,32.5684,43.6664,7.13826,130.86
288.9,630.423,289.571,602.648,560.587,27.7743,588.361,88.3851,264.49,0.0944657,34.3833,46.3567,10.5996,144.052
288.8,622.201,289.471,594.492,556.009,27.7091,583.718,91.9716,236.779,0.090671,36.3659,49.297,15.4847,153.73
288.7,596.931,289.371,569.286,551.003,27.6456,578.649,95.7811,210.588,0.0871018,38.5381,52.5184,22.1758,158.96
288.6,574.594,289.271,547.01,545.662,27.5847,573.246,99.8324,186.072,0.0837407,40.925,56.0566,31.0574,159.219
288.5,638.316,289.1708,610.795,540.498,27.5216,568.019,104.146,163.338,0.0805715,43.5558,59.9531,42.4658,154.479
288.4,571.033,289.071,543.574,536.375,27.4586,563.834,108.746,142.447,0.07758,46.4637,64.2558,56.6257,145.218
288.3,579.666,288.971,552.268,534.37,27.3989,561.769,113.658,123.416,0.0747529,49.6872,69.0208,73.5784,132.333
288.2,582.316,288.871,554.977,535.568,27.3385,562.906,118.911,106.231,0.0720784,53.27,74.3132,93.1135,116.996
288.1,595.989,288.771,568.711,540.832,27.2772,568.109,124.536,90.8425,0.0695457,57.262,80.2096,114.719,100.47
288.0,627.726,288.6708,600.512,550.625,27.2134,577.838,130.571,77.1762,0.0671448,61.7199,86.7995,137.562,83.9426
287.9,628.509,288.571,601.361,564.906,27.1479,592.053,137.055,65.1381,0.0648667,66.707,94.1885,160.516,68.3839
287.8,670.353,288.471,643.273,583.142,27.08,610.223,144.035,54.6191,0.0627031,72.2944,102.5,182.235,54.4752
287.7,660.241,288.371,633.231,604.425,27.0104,631.435,151.563,45.5001,0.0606465,78.5604,111.881,201.279,42.5912
287.6,717.197,288.271,690.259,627.665,26.9382,654.603,159.697,37.6562,0.0586898,85.5908,122.502,216.264,32.8338
287.5,741.267,288.1708,714.406,651.832,26.8616,678.694,168.505,30.9613,0.0568268,93.4782,134.564,226.032,25.0971
287.4,698.311,288.071,671.525,676.182,26.7861,702.968,178.062,25.2906,0.0550514,102.321,148.3,229.797,19.1426
287.3,724.33,287.971,697.619,700.443,26.7114,727.154,188.458,20.5238,0.0533583,112.223,163.978,227.249,14.6693
287.2,768.449,287.871,741.816,724.915,26.6329,751.547,199.792,16.5468,0.0517424,123.29,181.901,218.597,11.3681
287.1,804.682,287.771,778.132,750.467,26.55,777.017,212.181,13.2534,0.050199,135.629,202.402,204.544,8.95778
287.0,862.048,287.6708,835.586,778.449,26.462,804.911,225.761,10.5462,0.048724,149.342,225.827,186.184,7.20282
286.9,876.516,287.571,850.146,810.529,26.3701,836.899,240.689,8.3373,0.0473132,164.525,252.511,164.87,5.91813
286.8,860.983,287.471,834.705,848.47,26.2782,874.748,257.151,6.54804,0.045963,181.264,282.727,142.046,4.96548
286.7,973.587,287.371,947.406,893.905,26.181,920.086,275.364,5.10923,0.04467,199.627,316.611,119.085,4.24553
286.6,1025.42,287.271,999.35,948.08,26.0748,974.155,295.585,3.96056,0.043431,219.659,354.053,97.1645,3.68902
286.5,1104.45,287.1708,1078.49,1011.62,25.9615,1037.58,318.122,3.05011,0.042243,241.379,394.565,77.1777,3.24856
286.4,1178.69,287.071,1152.85,1084.38,25.8398,1110.22,343.343,2.33363,0.0411032,264.771,437.14,59.6988,2.89199
286.3,1239.12,286.971,1213.41,1165.31,25.7108,1191.02,371.69,1.77381,0.0400091,289.779,480.146,44.9934,2.59749
286.2,1202.59,286.871,1177.01,1252.53,25.5804,1278.11,403.701,1.33949,0.0389582,316.303,521.312,33.0641,2.35008
286.1,1352.21,286.771,1326.77,1343.55,25.4439,1368.99,440.036,1.00491,0.0379483,344.195,557.866,23.7161,2.13927
286.0,1464.21,286.6708,1438.92,1435.68,25.2931,1460.97,481.501,0.74899,0.0369772,373.252,586.848,16.6294,1.95754
285.9,1529.46,286.571,1504.33,1526.59,25.1326,1551.72,529.102,0.554602,0.0360431,403.223,605.583,11.4244,1.79937
285.8,1625.94,286.471,1600.98,1614.93,24.9632,1639.9,584.091,0.407985,0.035144,433.801,612.186,7.71544,1.66057
285.7,1808.82,286.371,1784.04,1700.88,24.7786,1725.66,648.049,0.29817,0.0342782,464.63,605.964,5.14711,1.53794
285.6,1833.99,286.271,1809.4,1786.38,24.5827,1810.96,722.981,0.216492,0.0334441,495.312,587.571,3.41548,1.42892
285.5,1953.36,286.1708,1928.99,1875.15,24.3788,1899.53,811.465,0.156163,0.0326401,525.409,558.86,2.27577,1.3315
285.4,2045.04,286.071,2020.88,1972.56,24.1634,1996.72,916.844,0.111911,0.0318649,554.459,522.491,1.54086,1.24402
285.3,2219.09,285.971,2195.16,2085.35,23.9335,2109.28,1043.53,0.079675,0.031117,581.984,481.421,1.07423,1.16513
285.2,2300.51,285.871,2276.82,2221.62,23.6896,2245.31,1197.41,0.0563547,0.0303952,607.502,438.433,0.780312,1.09371
285.1,2459.27,285.771,2435.83,2391.21,23.4326,2414.64,1386.59,0.0396001,0.0296982,630.546,395.818,0.594813,1.02882
285.0,2657.53,285.6708,2634.37,2606.67,23.1561,2629.82,1622.42,0.0276453,0.0290251,650.676,355.227,0.475961,0.969672
284.9,2934.47,285.571,2911.61,2885.13,22.8537,2907.99,1921.45,0.0191735,0.0283746,667.493,317.684,0.397491,0.915584
284.8,3171.13,285.471,3148.61,3251.81,22.5232,3274.33,2308.73,0.0132112,0.0277457,680.657,283.69,0.343359,0.865986
284.7,3650.82,285.371,3628.66,3746.48,22.1536,3768.63,2824.21,0.00904353,0.0271376,689.895,253.365,0.303997,0.820385
284.6,4435.3,285.271,4413.58,4436.34,21.715,4458.05,3535.38,0.00615025,0.0265493,695.01,226.579,0.273799,0.778355
284.5,5308.13,285.1708,5286.94,5442.53,21.186,5463.72,4563.74,0.00415532,0.02598,695.896,203.06,0.249511,0.739527
284.4,6856.4,285.071,6835.87,6992.85,20.5249,7013.37,6137.4,0.00278917,0.0254288,692.532,182.477,0.229238,0.703577
284.3,9794.03,284.971,9774.41,9497.15,19.6191,9516.77,8666.39,0.00185995,0.024895,684.99,164.481,0.211856,0.670224
284.2,13840.6,284.871,13822.2,13526.3,18.3323,13544.7,12721.6,0.00123222,0.0243779,673.431,148.74,0.196671,0.63922
284.1,19379.7,284.771,19363.2,19331,16.5225,19347.6,18553.7,0.000811017,0.0238767,658.095,134.95,0.183233,0.610346
284.0,25527.5,284.6708,25513.4,25720.6,14.0752,25734.6,24971.7,0.000530311,0.0233909,639.298,122.842,0.171234,0.58341
283.9,29499.6,284.571,29488.5,29580,11.0758,29591,28860.7,0.000344499,0.0229197,617.415,112.181,0.160447,0.558239
283.8,28179.5,284.471,28171.5,28032.8,7.93135,28040.8,27344.4,0.000222333,0.0224627,592.87,102.765,0.150697,0.534681
283.7,21833.5,284.371,21828.3,21619.8,5.20467,21625,20963.8,0.000142553,0.0220193,566.122,94.4237,0.141848,0.512599
283.6,13795,284.271,13791.8,13903.6,3.26217,13906.9,13281.6,9.08047e-05,0.0215888,537.649,87.009,0.133784,0.491872
283.5,7689.55,284.1708,7687.46,7921.37,2.09083,7923.46,7334.51,5.74642e-05,0.0211709,507.929,80.3967,0.126412,0.472389
283.4,4260.51,284.071,4259.07,4352.48,1.43934,4353.92,3801.41,3.6128e-05,0.020765,477.436,74.4809,0.119651,0.454052
283.3,2541.16,283.971,2540.1,2491.18,1.06855,2492.25,1975.89,2.25656e-05,0.0203707,446.617,69.1715,0.113434,0.436772
283.2,1700.19,283.871,1699.35,1543.91,0.837359,1544.75,1063.92,1.40026e-05,0.0199876,415.889,64.3918,0.107703,0.420468
283.1,1239.36,283.771,1238.68,1039.52,0.677137,1040.2,593.967,8.63234e-06,0.0196151,385.626,60.076,0.102405,0.405068
283.0,940.452,283.6708,939.894,752.211,0.558331,752.769,339.94,5.28695e-06,0.019253,356.154,56.1681,0.0974982,0.390505
282.9,715.804,283.571,715.336,577.599,0.468065,578.068,197.209,3.21692e-06,0.0189008,327.75,52.6198,0.0929433,0.37672
282.8,564.621,283.471,564.223,465.094,0.398286,465.492,114.996,1.94461e-06,0.0185583,300.636,49.3894,0.088707,0.363658
282.7,447.057,283.371,446.714,388.532,0.343156,388.875,66.9967,1.16784e-06,0.0182249,274.983,46.4411,0.0847595,0.351268
282.6,328.158,283.271,327.857,333.618,0.300915,333.919,38.8278,6.9677e-07,0.0179005,250.909,43.7437,0.0810746,0.339506
282.5,265,283.1708,264.731,292.226,0.268599,292.495,22.311,4.13005e-07,0.0175847,228.49,41.2702,0.0776291,0.328328
282.4,240.718,283.071,240.477,259.6,0.241048,259.841,12.6788,2.43208e-07,0.0172772,207.756,38.997,0.0744023,0.317697
282.3,187.325,282.971,187.108,232.895,0.217731,233.113,7.11126,1.42285e-07,0.0169777,188.703,36.9033,0.0713758,0.307577
282.2,162.822,282.871,162.624,210.381,0.198658,210.58,3.93026,8.26983e-08,0.0166859,171.295,34.9712,0.0685331,0.297936
282.1,143.257,282.771,143.075,190.985,0.181987,191.167,2.13759,4.77521e-08,0.0164015,155.474,33.1847,0.0658594,0.288744
282.0,127.641,282.6708,127.474,174.025,0.167233,174.193,1.14282,2.73934e-08,0.0161244,141.161,31.5297,0.0633413,0.279973
281.9,109.979,282.571,109.824,159.051,0.154293,159.205,0.600026,1.56119e-08,0.0158543,128.263,29.9939,0.0609668,0.271598
281.8,105.284,282.471,105.142,145.75,0.14257,145.893,0.309145,8.83946e-09,0.0155909,116.68,28.5661,0.0587251,0.263595
281.7,114.596,282.371,114.466,133.896,0.130594,134.027,0.156191,4.97224e-09,0.015334,106.306,27.2368,0.0566063,0.255943
281.6,88.8852,282.271,88.7657,123.308,0.119511,123.428,0.0773385,2.77866e-09,0.0150835,97.035,25.997,0.0546015,0.248621
281.5,77.1209,282.1708,77.0104,113.838,0.11047,113.948,0.037511,1.54269e-09,0.014839,88.7623,24.8391,0.0527026,0.24161
281.4,85.3515,282.071,85.2499,105.36,0.101622,105.461,0.0178134,8.50898e-10,0.0146004,81.387,23.7561,0.050902,0.234893
281.3,77.5828,281.971,77.4901,97.7631,0.0927467,97.8558,0.0082792,4.66267e-10,0.0143675,74.8139,22.7416,0.0491932,0.228453
281.2,64.7849,281.871,64.6999,90.9471,0.0849925,91.0321,0.00376469,2.53834e-10,0.0141402,68.9541,21.7902,0.0475699,0.222276
281.1,46.9435,281.771,46.8646,84.8221,0.0789085,84.901,0.00167429,1.37284e-10,0.0139182,63.7263,20.8967,0.0460264,0.216347
281.0,54.0869,281.6708,54.0135,79.3093,0.0734072,79.3827,0.000728068,7.37652e-11,0.0137015,59.0564,20.0566,0.0445575,0.210653
280.9,47.2308,281.571,47.1629,74.3379,0.0678897,74.4058,0.000309486,3.93767e-11,0.0134897,54.8779,19.2658,0.0431585,0.205182
280.8,50.3693,281.471,50.3067,69.8443,0.0625743,69.9068,0.00012857,2.08826e-11,0.0132828,51.1313,18.5204,0.0418249,0.199922
280.7,42.5011,281.371,42.4436,65.7722,0.0575163,65.8297,5.21885e-05,1.10024e-11,0.0130807,47.764,17.8172,0.0405528,0.194863
280.6,36.6134,281.271,36.5602,62.0717,0.0532079,62.1249,2.0695e-05,5.75901e-12,0.0128831,44.7297,17.1529,0.0393382,0.189994
280.5,22.6976,281.1708,22.6477,58.6991,0.0499791,58.7491,8.01564e-06,2.99479e-12,0.01269,41.988,16.5249,0.0381779,0.185306
280.4,31.775,281.071,31.7279,55.6172,0.0470138,55.6642,3.03195e-06,1.54718e-12,0.0125012,39.5034,15.9305,0.0370686,0.18079
280.3,23.8539,280.971,23.8099,52.7933,0.0439851,52.8373,1.11984e-06,7.94101e-13,0.0123166,37.2451,15.3674,0.0360072,0.176437
280.2,19.9161,280.871,19.8745,50.1977,0.0416028,50.2393,4.03813e-07,4.04918e-13,0.0121361,35.1865,14.8334,0.0349912,0.172241
280.1,37.9983,280.771,37.9598,47.8067,0.0384489,47.8451,1.42149e-07,2.05124e-13,0.0119594,33.3043,14.3267,0.0340178,0.168193
280.0,26.0892,280.6708,26.0543,45.598,0.0349579,45.6329,4.88422e-08,1.03234e-13,0.0117867,31.5785,13.8453,0.0330848,0.164286
279.9,19.1535,280.571,19.121,43.5511,0.0324943,43.5836,1.63791e-08,5.16163e-14,0.0116176,29.9917,13.3876,0.0321899,0.160515
279.8,28.2207,280.471,28.1908,41.6507,0.0299143,41.6806,5.36029e-09,2.56394e-14,0.0114522,28.5288,12.9521,0.0313311,0.156872
279.7,25.2967,280.371,25.2697,39.8823,0.0269988,39.9093,1.71178e-09,1.26528e-14,0.0112902,27.1767,12.5375,0.0305064,0.153352
279.6,22.3643,280.271,22.3399,38.2327,0.0244025,38.2571,5.3338e-10,6.20333e-15,0.0111317,25.924,12.1423,0.029714,0.14995
279.5,22.4279,280.1708,22.406,36.6907,0.0219623,36.7126,1.62147e-10,3.02148e-15,0.0109765,24.7606,11.7654,0.0289523,0.14666
279.4,21.4903,280.071,21.4707,35.2467,0.0195696,35.2662,4.80883e-11,1.46208e-15,0.0108245,23.678,11.4057,0.0282197,0.143477
279.3,13.54,279.971,13.5223,33.8915,0.0176613,33.9091,1.39141e-11,7.02882e-16,0.0106757,22.6683,11.0622,0.0275147,0.140397
279.2,20.5884,279.871,20.5726,32.6179,0.015802,32.6337,3.92821e-12,3.35699e-16,0.0105299,21.7249,10.7339,0.0268359,0.137416
279.1,22.6498,279.771,22.6364,31.4195,0.0134456,31.433,1.07924e-12,1.59285e-16,0.0103871,20.8419,10.42,0.0261821,0.134529
279.0,20.7114,279.6708,20.7003,30.2899,0.0110823,30.301,2.90183e-13,7.50859e-17,0.0102472,20.0139,10.1196,0.025552,0.131732
278.9,9.75463,279.571,9.7452,29.2228,0.00942197,29.2323,7.35596e-14,3.51641e-17,0.0101101,19.2363,9.83187,0.0249445,0.129021
278.8,7.77952,279.471,7.77105,28.2134,0.00846675,28.2219,2.01859e-14,1.63605e-17,0.00997567,18.5049,9.55624,0.0243586,0.126394
278.7,10.8059,279.371,10.7984,27.258,0.00745408,27.2654,4.8508e-15,7.5623e-18,0.00984396,17.816,9.29199,0.0237931,0.123846
278.6,3.82667,279.271,3.82001,26.3523,0.00665688,26.359,0.0,3.4727e-18,0.00971483,17.1661,9.03851,0.0232472,0.121375
278.5,15.8546,279.1708,15.849,25.4933,0.00558425,25.4989,0.0,1.5843e-18,0.00958823,16.5524,8.79522,0.0227199,0.118977
278.4,19.9054,279.071,19.9017,24.6783,0.00363463,24.6819,0.0,7.18071e-19,0.00946409,15.972,8.56159,0.0222105,0.11665
278.3,3.93922,278.971,3.93688,23.9028,0.00233462,23.9051,0.0,3.23336e-19,0.00934235,15.4226,8.33712,0.0217181,0.11439
278.2,9.95895,278.871,9.95737,23.1642,0.00157691,23.1658,0.0,1.44643e-19,0.00922294,14.9018,8.12133,0.0212419,0.112196
278.1,4.98015,278.771,4.97939,22.4607,0.00076235,22.4614,0.0,6.42836e-20,0.00910581,14.4077,7.91378,0.0207814,0.110064
278.0,9.0,278.6708,9.0,21.7898,0.0,21.7898,0.0,2.83831e-20,0.0089909,13.9384,7.71406,0.0203356,0.107993
277.9,0.0,278.571,0.0,21.1489,0.0,21.1489,0.0,1.24502e-20,0.00887815,13.4923,7.52179,0.0199042,0.105979
277.8,15.0,278.471,15.0,20.5366,0.0,20.5366,0.0,5.42566e-21,0.00876751,13.0678,7.33659,0.0194864,0.104022
277.7,17.0,278.371,17.0,19.9514,0.0,19.9514,0.0,2.34901e-21,0.00865892,12.6634,7.15813,0.0190816,0.102118
277.6,13.0,278.271,13.0,19.3916,0.0,19.3916,0.0,1.01036e-21,0.00855235,12.278,6.98609,0.0186894,0.100267
277.5,11.0,278.1708,11.0,18.8557,0.0,18.8557,0.0,4.31741e-22,0.00844772,11.9103,6.82015,0.0183092,0.0984649
277.4,4.0,278.071,4.0,18.3423,0.0,18.3423,0.0,1.83286e-22,0.00834501,11.5592,6.66005,0.0179405,0.0967114
277.3,14.0,277.971,14.0,17.8501,0.0,17.8501,0.0,7.73021e-23,0.00824416,11.2237,6.5055,0.0175829,0.0950044
277.2,16.0,277.871,16.0,17.3779,0.0,17.3779,0.0,3.23901e-23,0.00814513,10.9029,6.35625,0.0172359,0.0933423
277.1,3.0,277.771,3.0,16.9247,0.0,16.9247,0.0,1.34831e-23,0.00804788,10.596,6.21207,0.0168991,0.0917235
277.0,6.0,277.6708,6.0,16.4894,0.0,16.4894,0.0,5.57605e-24,0.00795236,10.302,6.07272,0.0165721,0.0901465