File: XPS/LG4X-result/HT-O1s.csv
#No of rows lightened (2D detector)1(if not using 2D detector, value is 1 and can be ignored!),,,,,,,,
raw_x,raw_y,corrected x,data-bg,sum_components,bg,sum_fit,bg_shirley_,C-O,C=O
539.9,8536,540.5708,-42.4647,45.2787,8578.46,8623.74,8578.46,45.2787,1.70552e-32
539.8,8526,540.4708,-51.6228,46.4989,8577.62,8624.12,8577.62,46.4989,9.56933e-32
539.7,8373,540.3708,-203.805,47.7692,8576.81,8624.57,8576.81,47.7692,5.26978e-31
539.6,8498,540.2708,-78.3654,49.0923,8576.37,8625.46,8576.37,49.0923,2.84834e-30
539.5,8537,540.1708,-38.6171,50.4712,8575.62,8626.09,8575.62,50.4712,1.51105e-29
539.4,8553,540.0708,-21.7727,51.9091,8574.77,8626.68,8574.77,51.9091,7.86776e-29
539.3,8592,539.9708,18.1112,53.4095,8573.89,8627.3,8573.89,53.4095,4.0208e-28
539.2,8625,539.8708,52.0912,54.976,8572.91,8627.88,8572.91,54.976,2.0168e-27
539.1,8687,539.7708,115.153,56.6125,8571.85,8628.46,8571.85,56.6125,9.92884e-27
539,8556,539.6708,-14.6332,58.3233,8570.63,8628.96,8570.63,58.3233,4.79759e-26
538.9,8558,539.5708,-11.7419,60.1129,8569.74,8629.85,8569.74,60.1129,2.27528e-25
538.8,8634,539.4708,65.1543,61.9864,8568.85,8630.83,8568.85,61.9864,1.05909e-24
538.7,8548,539.3708,-19.7622,63.9489,8567.76,8631.71,8567.76,63.9489,4.83861e-24
538.6,8608,539.2708,41.1094,66.0064,8566.89,8632.9,8566.89,66.0064,2.16968e-23
538.5,8644,539.1708,78.1289,68.1649,8565.87,8634.04,8565.87,68.1649,9.549e-23
538.4,8675,539.0708,110.237,70.4312,8564.76,8635.19,8564.76,70.4312,4.12485e-22
538.3,8429,538.9708,-134.578,72.8127,8563.58,8636.39,8563.58,72.8127,1.74882e-21
538.2,8791,538.8708,228,75.3172,8563,8638.32,8563,75.3172,7.2773e-21
538.1,8676,538.7708,114.47,77.9535,8561.53,8639.48,8561.53,77.9535,2.97223e-20
538,8721,538.6708,160.658,80.731,8560.34,8641.07,8560.34,80.731,1.19147e-19
537.9,8678,538.5708,118.956,83.6599,8559.04,8642.7,8559.04,83.6599,4.68782e-19
537.8,8704,538.4708,146.148,86.7514,8557.85,8644.6,8557.85,86.7514,1.81028e-18
537.7,8706,538.3708,149.404,90.0179,8556.6,8646.61,8556.6,90.0179,6.86134e-18
537.6,8671,538.2708,115.665,93.4728,8555.34,8648.81,8555.34,93.4728,2.55247e-17
537.5,8699,538.1708,144.84,97.131,8554.16,8651.29,8554.16,97.131,9.31962e-17
537.4,8740,538.0708,187.083,101.009,8552.92,8653.93,8552.92,101.009,3.33983e-16
537.3,8724,537.9708,172.428,105.124,8551.57,8656.7,8551.57,105.124,1.17473e-15
537.2,8666,537.8708,115.734,109.496,8550.27,8659.76,8550.27,109.496,4.05544e-15
537.1,8773,537.7708,223.896,114.148,8549.1,8663.25,8549.1,114.148,1.37413e-14
537,8747,537.6708,199.322,119.103,8547.68,8666.78,8547.68,119.103,4.56986e-14
536.9,8691,537.5708,144.685,124.389,8546.32,8670.7,8546.32,124.389,1.49165e-13
536.8,8651,537.4708,105.909,130.036,8545.09,8675.13,8545.09,130.036,4.77879e-13
536.7,8600,537.3708,56.0342,136.077,8543.97,8680.04,8543.97,136.077,1.50265e-12
536.6,8661,537.2708,118.034,142.551,8542.97,8685.52,8542.97,142.551,4.6375e-12
536.5,8719,537.1708,177.184,149.498,8541.82,8691.31,8541.82,149.498,1.40475e-11
536.4,8685,537.0708,144.477,156.968,8540.52,8697.49,8540.52,156.968,4.17638e-11
536.3,8703,536.9708,163.686,165.013,8539.31,8704.33,8539.31,165.013,1.21868e-10
536.2,8770,536.8708,231.94,173.694,8538.06,8711.75,8538.06,173.694,3.49033e-10
536.1,8852,536.7708,315.359,183.08,8536.64,8719.72,8536.64,183.08,9.81139e-10
536,8763,536.6708,227.98,193.25,8535.02,8728.27,8535.02,193.25,2.70697e-09
535.9,8772,536.5708,238.382,204.293,8533.62,8737.91,8533.62,204.293,7.33031e-09
535.8,8664,536.4708,131.805,216.312,8532.19,8748.51,8532.19,216.312,1.94827e-08
535.7,8744,536.3708,212.963,229.425,8531.04,8760.46,8531.04,229.425,5.08235e-08
535.6,8884,536.2708,354.318,243.767,8529.68,8773.45,8529.68,243.767,1.30127e-07
535.5,8955,536.1708,427.017,259.497,8527.98,8787.48,8527.98,259.497,3.27007e-07
535.4,8892,536.0708,365.892,276.798,8526.11,8802.91,8526.11,276.798,8.06558e-07
535.3,8882,535.9708,357.612,295.883,8524.39,8820.27,8524.39,295.883,1.95254e-06
535.2,8877,535.8708,354.307,317.001,8522.69,8839.69,8522.69,317.001,4.63931e-06
535.1,8906,535.7708,384.99,340.445,8521.01,8861.46,8521.01,340.445,1.08192e-05
535,9002,535.6708,482.744,366.558,8519.26,8885.81,8519.26,366.558,2.47641e-05
534.9,8950,535.5708,432.735,395.743,8517.27,8913.01,8517.27,395.743,5.56337e-05
534.8,8856,535.4708,340.597,428.476,8515.4,8943.88,8515.4,428.476,0.000122671
534.7,8875,535.3708,361.228,465.312,8513.77,8979.08,8513.77,465.311,0.00026548
534.6,9079,535.2708,566.906,506.902,8512.09,9019,8512.09,506.901,0.000563912
534.5,9154,535.1708,644.086,554.004,8509.91,9063.92,8509.91,554.002,0.00117565
534.4,9024,535.0708,516.452,607.487,8507.55,9115.04,8507.55,607.485,0.00240564
534.3,9179,534.9708,673.497,668.342,8505.5,9173.85,8505.5,668.337,0.00483139
534.2,9175,534.8708,671.924,737.67,8503.08,9240.75,8503.08,737.661,0.0095236
534.1,9291,534.7708,790.341,816.669,8500.66,9317.33,8500.66,816.651,0.0184254
534,9491,534.6708,993.045,906.595,8497.96,9404.55,8497.96,906.56,0.0349882
533.9,9536,534.5708,1041.24,1008.7,8494.76,9503.46,8494.76,1008.63,0.0652099
533.8,9514,534.4708,1022.55,1124.14,8491.45,9615.59,8491.45,1124.02,0.119287
533.7,9640,534.3708,1151.8,1253.86,8488.2,9742.06,8488.2,1253.65,0.214171
533.6,9710,534.2708,1225.36,1398.43,8484.64,9883.06,8484.64,1398.05,0.377411
533.5,9973,534.1708,1492.1,1557.87,8480.9,10038.8,8480.9,1557.21,0.652764
533.4,10154,534.0708,1677.49,1731.46,8476.51,10208,8476.51,1730.35,1.10812
533.3,10474,533.9708,2002.32,1917.56,8471.68,10389.2,8471.68,1915.72,1.84631
533.2,10628,533.8708,2161.94,2113.51,8466.06,10579.6,8466.06,2110.49,3.01931
533.1,10770,533.7708,2309.94,2315.49,8460.06,10775.6,8460.06,2310.65,4.8462
533,11040,533.6708,2586.29,2518.66,8453.71,10972.4,8453.71,2511.03,7.63451
532.9,11256,533.5708,2809.3,2717.26,8446.7,11164,8446.7,2705.45,11.8045
532.8,11412,533.4708,2972.85,2904.94,8439.15,11344.1,8439.15,2887.03,17.9145
532.7,11513,533.3708,3081.78,3075.24,8431.22,11506.5,8431.22,3048.55,26.6838
532.6,11697,533.2708,3273.96,3222.04,8423.04,11645.1,8423.04,3183.03,39.0101
532.5,11919,533.1708,3504.6,3340.2,8414.4,11754.6,8414.4,3284.22,55.9752
532.4,11827,533.0708,3421.78,3426.05,8405.22,11831.3,8405.22,3347.22,78.8318
532.3,11754,532.9708,3357.73,3477.82,8396.27,11874.1,8396.27,3368.86,108.967
532.2,11656,532.8708,3268.51,3495.86,8387.49,11883.4,8387.49,3348.03,147.834
532.1,11742,532.7708,3363.04,3482.65,8378.96,11861.6,8378.96,3285.79,196.854
532,11801,532.6708,3430.79,3442.56,8370.21,11812.8,8370.21,3185.28,257.276
531.9,11684,532.5708,3322.68,3381.41,8361.32,11742.7,8361.32,3051.38,330.023
531.8,11627,532.4708,3274.28,3305.82,8352.72,11658.5,8352.72,2890.31,415.504
531.7,11603,532.3708,3258.74,3222.5,8344.26,11566.8,8344.26,2709.05,513.445
531.6,11645,532.2708,3309.15,3137.53,8335.85,11473.4,8335.85,2514.8,622.731
531.5,11496,532.1708,3168.65,3055.78,8327.35,11383.1,8327.35,2314.48,741.301
531.4,11509,532.0708,3189.79,2980.38,8319.21,11299.6,8319.21,2114.26,866.116
531.3,11366,531.9708,3054.97,2912.56,8311.03,11223.6,8311.03,1919.34,993.22
531.2,11067,531.8708,2763.78,2851.66,8303.22,11154.9,8303.22,1733.77,1117.9
531.1,10923,531.7708,2626.87,2795.32,8296.13,11091.5,8296.13,1560.38,1234.94
531,10934,531.6708,2644.59,2739.94,8289.41,11029.3,8289.41,1400.94,1338.99
530.9,10914,531.5708,2631.35,2681.2,8282.65,10963.9,8282.65,1256.25,1424.95
530.8,10763,531.4708,2487.05,2614.7,8275.95,10890.7,8275.95,1126.35,1488.35
530.7,10862,531.3708,2592.38,2536.51,8269.62,10806.1,8269.62,1010.7,1525.81
530.6,10686,531.2708,2422.96,2443.65,8263.04,10706.7,8263.04,908.384,1535.26
530.5,10606,531.1708,2349.1,2334.44,8256.9,10591.3,8256.9,818.255,1516.19
530.4,10502,531.0708,2251.05,2208.71,8250.95,10459.7,8250.95,739.069,1469.64
530.3,10278,530.9708,2032.74,2067.73,8245.26,10313,8245.26,669.573,1398.16
530.2,10248,530.8708,2007.87,1914.11,8240.13,10154.2,8240.13,608.57,1305.54
530.1,9879,530.7708,1643.93,1751.45,8235.07,9986.51,8235.07,554.957,1196.49
530,9973,530.6708,1742.09,1584,8230.91,9814.92,8230.91,507.743,1076.26
529.9,9720,530.5708,1493.47,1416.25,8226.53,9642.78,8226.53,466.056,950.195
529.8,9484,530.4708,1261.23,1252.51,8222.77,9475.28,8222.77,429.136,823.372
529.7,9401,530.3708,1181.41,1096.6,8219.59,9316.19,8219.59,396.331,700.272
529.6,9152,530.2708,935.387,951.638,8216.61,9168.25,8216.61,367.083,584.555
529.5,8911,530.1708,696.747,819.845,8214.25,9034.1,8214.25,340.916,478.929
529.4,8883,530.0708,670.514,702.552,8212.49,8915.04,8212.49,317.424,385.128
529.3,8811,529.9708,600.211,600.232,8210.79,8811.02,8210.79,296.265,303.967
529.2,8601,529.8708,391.731,512.614,8209.27,8721.88,8209.27,277.144,235.47
529.1,8655,529.7708,446.733,438.844,8208.27,8647.11,8208.27,259.811,179.032
529,8626,529.6708,418.869,377.656,8207.13,8584.79,8207.13,244.053,133.603
528.9,8378,529.5708,171.933,327.541,8206.07,8533.61,8206.07,229.685,97.856
528.8,8435,529.4708,229.385,286.898,8205.62,8492.51,8205.62,216.551,70.3471
528.7,8512,529.3708,306.978,254.148,8205.02,8459.17,8205.02,204.512,49.6356
528.6,8498,529.2708,293.761,227.826,8204.24,8432.06,8204.24,193.452,34.3738
528.5,8389,529.1708,185.509,206.63,8203.49,8410.12,8203.49,183.266,23.3641
528.4,8403,529.0708,199.989,189.452,8203.01,8392.46,8203.01,173.866,15.5869
528.3,8385,528.9708,182.503,175.378,8202.5,8377.87,8202.5,165.172,10.206
528.2,8318,528.8708,115.972,163.674,8202.03,8365.7,8202.03,157.115,6.55906
528.1,8264,528.7708,62.2769,153.772,8201.72,8355.5,8201.72,149.635,4.13727
528,8396,528.6708,194.448,145.24,8201.55,8346.79,8201.55,142.678,2.56138
527.9,8306,528.5708,104.945,137.753,8201.05,8338.81,8201.05,136.196,1.5564
527.8,8207,528.4708,6.22002,131.075,8200.78,8331.86,8200.78,130.147,0.928232
527.7,8318,528.3708,117.251,125.037,8200.75,8325.79,8200.75,124.493,0.54335
527.6,8403,528.2708,202.555,119.513,8200.44,8319.96,8200.44,119.201,0.312169
527.5,8293,528.1708,93.0695,114.415,8199.93,8314.35,8199.93,114.239,0.17603
527.4,8353,528.0708,153.312,109.68,8199.69,8309.37,8199.69,109.582,0.0974256
527.3,8287,527.9708,87.7032,105.257,8199.3,8304.55,8199.3,105.205,0.0529232
527.2,8290,527.8708,90.9313,101.113,8199.07,8300.18,8199.07,101.085,0.0282168
527.1,8289,527.7708,90.1668,97.2174,8198.83,8296.05,8198.83,97.2027,0.0147658
527,8248,527.6708,49.3998,93.5481,8198.6,8292.15,8198.6,93.5405,0.00758388
526.9,8377,527.5708,178.532,90.0856,8198.47,8288.55,8198.47,90.0818,0.0038231
526.8,8313,527.4708,114.982,86.8137,8198.02,8284.83,8198.02,86.8119,0.00189159
526.7,8315,527.3708,117.274,83.718,8197.73,8281.44,8197.73,83.7171,0.000918597
526.6,8261,527.2708,63.571,80.7857,8197.43,8278.21,8197.43,80.7852,0.000437836
526.5,8129,527.1708,-68.265,78.0052,8197.26,8275.27,8197.26,78.005,0.000204826
526.4,8214,527.0708,16.5736,75.3662,8197.43,8272.79,8197.43,75.3661,9.40475e-05
526.3,8268,526.9708,70.6217,72.8592,8197.38,8270.24,8197.38,72.8591,4.23834e-05
526.2,8318,526.8708,120.803,70.4754,8197.2,8267.67,8197.2,70.4754,1.87471e-05
526.1,8309,526.7708,112.108,68.2069,8196.89,8265.1,8196.89,68.2069,8.13874e-06
526,8320,526.6708,123.39,66.0465,8196.61,8262.66,8196.61,66.0465,3.46792e-06
525.9,8360,526.5708,163.699,63.9872,8196.3,8260.29,8196.3,63.9872,1.45034e-06
525.8,8187,526.4708,-8.89265,62.0229,8195.89,8257.92,8195.89,62.0229,5.95328e-07
525.7,8190,526.3708,-5.91109,60.1478,8195.91,8256.06,8195.91,60.1478,2.39845e-07
525.6,8181,526.2708,-14.9221,58.3566,8195.92,8254.28,8195.92,58.3566,9.48403e-08
525.5,8225,526.1708,29.0446,56.6443,8195.96,8252.6,8195.96,56.6443,3.68081e-08
525.4,8236,526.0708,40.1199,55.0064,8195.88,8250.89,8195.88,55.0064,1.40211e-08
525.3,8333,525.9708,137.222,53.4387,8195.78,8249.22,8195.78,53.4387,5.24211e-09
525.2,8242,525.8708,46.5638,51.9371,8195.44,8247.37,8195.44,51.9371,1.92362e-09
525.1,8322,525.7708,126.681,50.498,8195.32,8245.82,8195.32,50.498,6.92817e-10
525,8408,525.6708,212.995,49.118,8195,8244.12,8195,49.118,2.4491e-10