File: XPS/LG4X-result/MX-HT-0.5-Ti2p_5.csv
#No of rows lightened (2D detector)1(if not using 2D detector, value is 1 and can be ignored!)
raw_x,raw_y,corrected x,data-bg,sum_components,bg,sum_fit,bg_shirley_,C_1,C_2,C_3,C_4,C_5,C_6,C_7,C_8
470.0,366.0,470.6318,366,142.934,0.000352358,142.934,0.000352358,11.6544,9.59029,12.2055,27.9813,55.8458,12.365,9.19662,4.09494
469.9,458.0,470.5318,458,145.672,0.000352118,145.673,0.000352118,11.8631,9.73384,12.3742,28.3397,57.0322,12.65,9.44154,4.23762
469.8,322.0,470.432,322,148.495,0.000351819,148.496,0.000351819,12.0775,9.88063,12.5464,28.705,58.2566,12.9449,9.69632,4.38786
469.7,415.0,470.332,415,151.407,0.000351609,151.407,0.000351609,12.2976,10.0308,12.7223,29.0774,59.5207,13.2503,9.96152,4.5462
469.6,354.0,470.2318,354,154.411,0.000351338,154.411,0.000351338,12.5239,10.1843,12.9018,29.4572,60.8263,13.5665,10.2377,4.71324
469.5,329.0,470.1318,329,157.512,0.000351106,157.512,0.000351106,12.7565,10.3415,13.0852,29.8444,62.1752,13.8942,10.5255,4.88961
469.4,363.0,470.0318,363,160.714,0.000350891,160.715,0.000350891,12.9956,10.5023,13.2725,30.2393,63.5693,14.2338,10.8255,5.07604
469.3,299.0,469.932,299,164.023,0.000350654,164.023,0.000350654,13.2414,10.6668,13.4638,30.642,65.0106,14.586,11.1385,5.27328
469.2,316.0,469.832,316,167.442,0.000350459,167.442,0.000350459,13.4943,10.8353,13.6593,31.0529,66.5013,14.9514,11.4652,5.4822
469.1,313.0,469.7318,313,170.978,0.000350252,170.978,0.000350252,13.7545,11.0078,13.8591,31.4721,68.0437,15.3306,11.8064,5.70372
469.0,213.0,469.6318,213,174.636,0.000350048,174.637,0.000350048,14.0223,11.1844,14.0633,31.8998,69.6401,15.7244,12.1629,5.93888
468.9,206.0,469.5318,206,178.423,0.000349909,178.423,0.000349909,14.298,11.3653,14.2721,32.3363,71.2931,16.1335,12.5358,6.18881
468.8,140.0,469.432,140,182.345,0.000349774,182.345,0.000349774,14.5819,11.5506,14.4855,32.7818,73.0054,16.5587,12.926,6.45477
468.7,217.0,469.332,217,186.409,0.000349683,186.409,0.000349683,14.8743,11.7405,14.7038,33.2365,74.7799,17.0008,13.3347,6.73816
468.6,211.0,469.2318,211,190.622,0.000349541,190.623,0.000349541,15.1756,11.9351,14.927,33.7008,76.6196,17.4608,13.7628,7.04052
468.5,212.0,469.1318,212,194.994,0.000349403,194.994,0.000349403,15.4861,12.1346,15.1554,34.1749,78.5278,17.9397,14.2119,7.36356
468.4,223.0,469.0318,223,199.532,0.000349264,199.532,0.000349264,15.8062,12.3391,15.389,34.6591,80.5077,18.4384,14.6831,7.70922
468.3,146.0,468.932,146,204.246,0.000349119,204.246,0.000349119,16.1364,12.5488,15.628,35.1535,82.5631,18.9581,15.1779,8.07963
468.2,195.0,468.832,195,209.145,0.000349023,209.146,0.000349023,16.4769,12.7639,15.8727,35.6587,84.6979,19.5,15.6981,8.4772
468.1,161.0,468.7318,161,214.242,0.000348896,214.243,0.000348896,16.8284,12.9846,16.1231,36.1748,86.9161,20.0653,16.2453,8.90463
468.0,107.0,468.6318,107,219.548,0.000348791,219.548,0.000348791,17.1912,13.211,16.3796,36.7022,89.2221,20.6554,16.8214,9.36497
467.9,87.0,468.5318,86.9997,225.075,0.000348721,225.075,0.000348721,17.5658,13.4434,16.6421,37.2412,91.6206,21.2718,17.4284,9.86164
467.8,117.0,468.432,117,230.838,0.000348664,230.838,0.000348664,17.9529,13.682,16.9111,37.7921,94.1166,21.916,18.0687,10.3986
467.7,0.0,468.332,-0.000348588,236.852,0.000348588,236.852,0.000348588,18.3528,13.927,17.1866,38.3553,96.7154,22.5898,18.7446,10.9801
467.6,104.403,468.2318,104.403,243.133,0.000348588,243.133,0.000348588,18.7662,14.1786,17.4689,38.9312,99.4228,23.2949,19.4588,11.6114
467.5,78.1081,468.1318,78.1077,249.7,0.000348519,249.7,0.000348519,19.1937,14.4371,17.7581,39.5202,102.245,24.0334,20.2143,12.2981
467.4,22.4966,468.0318,22.4962,256.572,0.000348468,256.572,0.000348468,19.6359,14.7027,18.0547,40.1226,105.188,24.8073,21.0142,13.0469
467.3,63.83,467.932,63.8296,263.772,0.000348454,263.773,0.000348454,20.0936,14.9757,18.3587,40.7389,108.259,25.619,21.8621,13.8655
467.2,59.3055,467.832,59.3052,271.324,0.000348412,271.325,0.000348412,20.5675,15.2564,18.6704,41.3695,111.465,26.4708,22.7619,14.7625
467.1,59.7654,467.7318,59.765,279.256,0.000348373,279.256,0.000348373,21.0583,15.545,18.9902,42.0148,114.816,27.3656,23.7178,15.7483
467.0,104.399,467.6318,104.399,287.596,0.000348334,287.596,0.000348334,21.5668,15.8418,19.3182,42.6753,118.318,28.3061,24.7345,16.8348
466.9,89.1468,467.5318,89.1465,296.379,0.000348266,296.379,0.000348266,22.0939,16.1473,19.6548,43.3515,121.982,29.2956,25.8173,18.036
466.8,100.881,467.432,100.88,305.642,0.000348208,305.642,0.000348208,22.6406,16.4616,20.0002,44.0439,125.818,30.3374,26.9719,19.3682
466.7,125.756,467.332,125.756,315.428,0.000348142,315.428,0.000348142,23.2077,16.7852,20.3549,44.753,129.836,31.4354,28.2048,20.8509
466.6,217.08,467.2318,217.08,325.785,0.00034806,325.785,0.00034806,23.7964,17.1184,20.719,45.4794,134.048,32.5936,29.5231,22.5072
466.5,171.581,467.1318,171.581,336.768,0.000347918,336.768,0.000347918,24.4077,17.4616,21.093,46.2235,138.467,33.8163,30.9347,24.3646
466.4,250.21,467.0318,250.21,348.44,0.000347806,348.44,0.000347806,25.0428,17.8152,21.4772,46.986,143.105,35.1085,32.4486,26.4562
466.3,198.945,466.932,198.944,360.873,0.000347642,360.873,0.000347642,25.703,18.1797,21.8719,47.7676,147.979,36.4755,34.0746,28.822
466.2,158.324,466.832,158.324,374.152,0.000347512,374.153,0.000347512,26.3895,18.5554,22.2777,48.5688,153.103,37.9231,35.824,31.5107
466.1,271.986,466.7318,271.986,388.376,0.000347409,388.376,0.000347409,27.1039,18.9429,22.6948,49.3902,158.495,39.4576,37.7094,34.5818
466.0,254.018,466.6318,254.017,403.66,0.000347231,403.661,0.000347231,27.8476,19.3426,23.1237,50.2327,164.174,41.0862,39.7449,38.1084
465.9,270.041,466.5318,270.041,420.144,0.000347065,420.144,0.000347065,28.6222,19.7551,23.5649,51.0969,170.16,42.8165,41.9467,42.1814
465.8,275.147,466.432,275.147,437.993,0.000346889,437.993,0.000346889,29.4295,20.1809,24.0188,51.9836,176.476,44.6571,44.3328,46.9143
465.7,358.594,466.332,358.594,457.407,0.000346709,457.407,0.000346709,30.2714,20.6205,24.486,52.8935,183.145,46.6175,46.9241,52.4492
465.6,562.15,466.2318,562.15,478.631,0.000346474,478.631,0.000346474,31.1498,21.0747,24.9669,53.8274,190.193,48.7081,49.7442,58.9663
465.5,484.191,466.1318,484.191,501.964,0.000346107,501.965,0.000346107,32.0669,21.544,25.462,54.7863,197.65,50.9405,52.8201,66.6941
465.4,399.604,466.0318,399.604,527.779,0.000345791,527.78,0.000345791,33.0249,22.0291,25.9721,55.771,205.547,53.3277,56.1828,75.9242
465.3,585.408,465.932,585.408,556.537,0.00034553,556.537,0.00034553,34.0264,22.5308,26.4976,56.7825,213.918,55.8842,59.8681,87.0289
465.2,708.405,465.832,708.405,588.81,0.000345147,588.81,0.000345147,35.074,23.0497,27.0391,57.8217,222.8,58.6259,63.9172,100.482
465.1,836.371,465.7318,836.371,625.308,0.000344684,625.308,0.000344684,36.1706,23.5867,27.5975,58.8896,232.235,61.571,68.378,116.879
465.0,852.895,465.6318,852.894,666.887,0.000344138,666.887,0.000344138,37.3192,24.1427,28.1733,59.9874,242.268,64.7396,73.3061,136.951
464.9,821.361,465.5318,821.36,714.54,0.000343581,714.541,0.000343581,38.5232,24.7185,28.7672,61.1161,252.947,68.1545,78.7663,161.548
464.8,874.912,465.432,874.911,769.311,0.000343044,769.312,0.000343044,39.7862,25.3151,29.3801,62.2769,264.326,71.8414,84.8347,191.551
464.7,813.432,465.332,813.432,832.05,0.000342472,832.051,0.000342472,41.1121,25.9335,30.0128,63.4711,276.467,75.8292,91.6005,227.625
464.6,940.204,465.2318,940.204,902.881,0.000341941,902.882,0.000341941,42.5051,26.5748,30.6661,64.6998,289.432,80.1509,99.1688,269.684
464.5,1049.89,465.1318,1049.89,980.263,0.000341327,980.264,0.000341327,43.9699,27.2401,31.3409,65.9646,303.295,84.8438,107.664,315.945
464.4,1065.06,465.0318,1065.06,1059.81,0.000340641,1059.81,0.000340641,45.5113,27.9307,32.0382,67.2667,318.134,89.9505,117.233,361.747
464.3,1169.69,464.932,1169.69,1133.82,0.000339945,1133.82,0.000339945,47.1349,28.6477,32.759,68.6077,334.035,95.5195,128.052,399.069
464.2,1163.7,464.832,1163.7,1193.26,0.00033918,1193.26,0.00033918,48.8465,29.3926,33.5043,69.9891,351.096,101.607,140.328,418.496
464.1,1131.56,464.7318,1131.56,1232.52,0.00033842,1232.53,0.00033842,50.6526,30.1669,34.2754,71.4126,369.421,108.277,154.309,414.012
464.0,1146.36,464.6318,1146.36,1253.58,0.000337681,1253.58,0.000337681,52.5602,30.9721,35.0733,72.8799,389.126,115.602,170.289,387.075
463.9,1345.99,464.5318,1345.99,1264.88,0.000336932,1264.88,0.000336932,54.5771,31.8098,35.8993,74.3928,410.34,123.67,188.619,345.569
463.8,1301.21,464.432,1301.21,1276.43,0.000336052,1276.43,0.000336052,56.7117,32.6819,36.7548,75.9532,433.205,132.579,209.708,298.84
463.7,1267.13,464.332,1267.13,1295.87,0.000335202,1295.87,0.000335202,58.9732,33.5902,37.6412,77.5632,457.878,142.444,234.035,253.744
463.6,1346.22,464.2318,1346.22,1327.54,0.000334374,1327.54,0.000334374,61.372,34.5368,38.56,79.2248,484.533,153.401,262.144,213.771
463.5,1363.69,464.1318,1363.69,1373.45,0.000333495,1373.45,0.000333495,63.9193,35.5238,39.5127,80.9402,513.362,165.607,294.635,179.953
463.4,1563.99,464.0318,1563.99,1434.36,0.000332604,1434.36,0.000332604,66.6274,36.5536,40.5012,82.7118,544.578,179.246,332.13,152.014
463.3,1406.47,463.932,1406.47,1510.54,0.000331582,1510.54,0.000331582,69.5102,37.6286,41.5271,84.5422,578.418,194.538,375.206,129.168
463.2,1564.94,463.832,1564.94,1602.03,0.000330663,1602.03,0.000330663,72.5829,38.7516,42.5924,86.4338,615.145,211.738,424.262,110.526
463.1,1742.71,463.7318,1742.71,1708.66,0.00032964,1708.66,0.00032964,75.8623,39.9253,43.6991,88.3895,655.053,231.148,479.303,95.2784
463.0,1892.75,463.6318,1892.75,1829.73,0.000328502,1829.73,0.000328502,79.3674,41.153,44.8494,90.4122,698.467,253.127,539.609,82.7423
462.9,2029.9,463.5318,2029.9,1963.63,0.000327265,1963.63,0.000327265,83.1191,42.438,46.0456,92.505,745.75,278.093,603.31,72.369
462.8,2012.52,463.432,2012.52,2107.41,0.000325939,2107.41,0.000325939,87.1409,43.7837,47.2902,94.671,797.305,306.541,666.955,63.7242
462.7,2196.77,463.332,2196.77,2256.58,0.000324624,2256.58,0.000324624,91.4592,45.1943,48.5858,96.9139,853.584,339.045,725.331,56.4672
462.6,2371.41,463.232,2371.41,2405.53,0.000323189,2405.53,0.000323189,96.1035,46.6737,49.9352,99.2373,915.084,376.267,771.899,50.3312
462.5,2542.39,463.1318,2542.39,2548.85,0.000321639,2548.85,0.000321639,101.107,48.2267,51.3415,101.645,982.358,418.959,800.107,45.1069
462.4,2604.27,463.032,2604.27,2683.27,0.000319978,2683.28,0.000319978,106.508,49.858,52.8078,104.141,1056.01,467.942,805.375,40.629
462.3,2654.58,462.932,2654.58,2809.34,0.000318276,2809.34,0.000318276,112.348,51.5731,54.3377,106.73,1136.72,524.073,786.793,36.7667
462.2,2960.26,462.832,2960.26,2931.65,0.000316542,2931.65,0.000316542,118.676,53.3777,55.9348,109.417,1225.18,588.163,747.493,33.4154
462.1,3114.72,462.732,3114.72,3057.52,0.000314608,3057.52,0.000314608,125.548,55.2782,57.6032,112.206,1322.14,660.829,693.419,30.4912
462.0,3277.41,462.6318,3277.41,3194.64,0.000312573,3194.64,0.000312573,133.026,57.2814,59.3471,115.102,1428.38,742.249,631.333,27.9263
461.9,3516.65,462.532,3516.65,3349.05,0.000310431,3349.05,0.000310431,141.183,59.3947,61.1711,118.112,1544.6,831.79,567.128,25.6654
461.8,3789.86,462.432,3789.86,3523.67,0.000308134,3523.67,0.000308134,150.102,61.6265,63.0803,121.241,1671.42,927.506,505.027,23.6632
461.7,3842.34,462.332,3842.34,3717.66,0.000305657,3717.66,0.000305657,159.879,63.9855,65.0799,124.496,1809.21,1025.58,447.545,21.8826
461.6,3899.24,462.232,3899.24,3926.13,0.000303147,3926.13,0.000303147,170.628,66.4817,67.1757,127.884,1957.91,1119.92,395.847,20.2924
461.5,4252.72,462.1318,4252.72,4140.48,0.000300599,4140.48,0.000300599,182.477,69.1258,69.374,131.411,2116.74,1202.29,350.196,18.8669
461.4,4216.43,462.032,4216.43,4349.41,0.000297821,4349.41,0.000297821,195.579,71.9295,71.6816,135.085,2283.86,1263.36,310.331,17.5845
461.3,4347.5,461.932,4347.5,4540.81,0.000295066,4540.81,0.000295066,210.113,74.906,74.1058,138.915,2455.76,1294.85,275.734,16.4269
461.2,4600.06,461.832,4600.05,4703.84,0.000292225,4703.84,0.000292225,226.29,78.0696,76.6545,142.91,2626.77,1291.97,245.791,15.3785
461.1,4963.99,461.732,4963.99,4830.14,0.00028922,4830.14,0.00028922,244.361,81.4361,79.3364,147.079,2788.43,1255.18,219.886,14.4263
461.0,4964.33,461.6318,4964.33,4913.44,0.000285976,4913.44,0.000285976,264.625,85.0231,82.161,151.432,2929.2,1189.99,197.448,13.5589
460.9,4855.26,461.532,4855.26,4948.06,0.000282733,4948.06,0.000282733,287.438,88.8501,85.1383,155.981,3034.89,1105.03,177.97,12.7667
460.8,4847.73,461.432,4847.73,4927.94,0.00027956,4927.94,0.00027956,313.232,92.9389,88.2796,160.737,3090.14,1009.56,161.011,12.0413
460.7,4657.44,461.332,4657.44,4847.52,0.000276393,4847.52,0.000276393,342.528,97.3135,91.5972,165.713,3081.28,911.519,146.198,11.3755
460.6,4818.03,461.232,4818.03,4704.64,0.00027335,4704.64,0.00027335,375.96,102.001,95.1043,170.923,3000.07,816.61,133.211,10.763
460.5,4582.34,461.1318,4582.33,4503.74,0.000270202,4503.74,0.000270202,414.304,107.031,98.8156,176.381,2846.92,728.31,121.785,10.1982
460.4,4360.87,461.032,4360.87,4257.45,0.000267208,4257.45,0.000267208,458.515,112.439,102.747,182.104,2631.96,648.309,111.695,9.67641
460.3,4064.41,460.932,4064.41,3985.19,0.000264359,3985.19,0.000264359,509.773,118.261,106.917,188.109,2373.11,577.077,102.751,9.19339
460.2,3704.41,460.832,3704.41,3709.47,0.000261703,3709.48,0.000261703,569.54,124.541,111.344,194.414,2091.75,514.342,94.7948,8.7454
460.1,3452.05,460.732,3452.05,3451.62,0.000259283,3451.62,0.000259283,639.637,131.328,116.05,201.04,1808.11,459.441,87.6931,8.32918
460.0,3177.66,460.6318,3177.66,3228.88,0.000257027,3228.88,0.000257027,722.33,138.676,121.058,208.008,1537.99,411.549,81.3325,7.94179
459.9,2991.48,460.532,2991.48,3053.46,0.000254951,3053.46,0.000254951,820.433,146.649,126.396,215.343,1291.63,369.809,75.6171,7.58065
459.8,2863.09,460.432,2863.09,2933.12,0.000252996,2933.12,0.000252996,937.41,155.318,132.092,223.071,1074.11,333.409,70.4656,7.24346
459.7,2881.28,460.332,2881.28,2872.58,0.000251126,2872.58,0.000251126,1077.46,164.764,138.178,231.22,886.605,301.614,65.8084,6.92816
459.6,2852.42,460.232,2852.42,2874.88,0.000249243,2874.88,0.000249243,1245.51,175.081,144.692,239.822,727.785,273.774,61.5861,6.6329
459.5,3015.08,460.1318,3015.08,2942.31,0.00024738,2942.31,0.00024738,1446.97,186.378,151.673,248.909,594.949,249.33,57.7476,6.35602
459.4,3079.62,460.032,3079.62,3076.49,0.00024541,3076.49,0.00024541,1687.04,198.78,159.167,258.519,484.845,227.799,54.249,6.09605
459.3,3293.23,459.932,3293.23,3277.28,0.000243397,3277.28,0.000243397,1969.09,212.432,167.225,268.693,394.164,208.774,51.0521,5.85163
459.2,3617.92,459.832,3617.92,3539.93,0.000241246,3539.93,0.000241246,2291.57,227.503,175.905,279.475,319.818,191.907,48.1241,5.62156
459.1,3927.06,459.732,3927.06,3850.22,0.000238882,3850.22,0.000238882,2643.04,244.19,185.271,290.914,259.06,176.902,45.4361,5.40474
459.0,4243.61,459.6318,4243.61,4178.53,0.000236316,4178.53,0.000236316,2996.14,262.726,195.397,303.065,209.524,163.512,42.9632,5.20018
458.9,4435.13,459.532,4435.13,4476.73,0.000233543,4476.73,0.000233543,3304.57,283.384,206.366,315.987,169.209,151.523,40.6835,5.00697
458.8,4488.59,459.432,4488.59,4685.13,0.000230646,4685.13,0.000230646,3510.02,306.487,218.273,329.747,136.447,140.755,38.5775,4.82429
458.7,4595.67,459.332,4595.67,4753.73,0.000227713,4753.73,0.000227713,3563.47,332.422,231.227,344.417,109.857,131.056,36.6285,4.65139
458.6,4712.62,459.232,4712.62,4667.75,0.00022471,4667.75,0.00022471,3450.77,361.646,245.352,360.079,88.3026,122.292,34.8215,4.48759
458.5,4585.53,459.1318,4585.53,4456.09,0.000221631,4456.09,0.000221631,3201.08,394.711,260.792,376.824,70.8518,114.353,33.1431,4.33226
458.4,4185.4,459.032,4185.4,4174.35,0.000218635,4174.35,0.000218635,2869.95,432.28,277.713,394.752,56.7421,107.14,31.5816,4.18484
458.3,3862.49,458.932,3862.49,3878.6,0.0002159,3878.6,0.0002159,2513.07,475.151,296.305,413.978,45.3503,100.57,30.1266,4.04479
458.2,3833.21,458.832,3833.21,3609.08,0.000213377,3609.08,0.000213377,2169.95,524.294,316.793,434.626,36.1674,94.5723,28.7686,3.91163
458.1,3541.69,458.732,3541.69,3387.81,0.000210872,3387.81,0.000210872,1861.51,580.882,339.437,456.84,28.7777,89.0826,27.4995,3.78493
458.0,3227.83,458.6318,3227.83,3223.44,0.000208558,3223.44,0.000208558,1594.9,646.343,364.544,480.781,22.8425,84.047,26.3115,3.66426
457.9,3133.4,458.532,3133.4,3117.18,0.000206449,3117.18,0.000206449,1369.42,722.402,392.476,506.628,18.0851,79.4178,25.1982,3.54926
457.8,3098.46,458.432,3098.46,3067.18,0.000204402,3067.18,0.000204402,1180.76,811.14,423.66,534.587,14.2803,75.1533,24.1533,3.43957
457.7,2972.91,458.332,2972.91,3071.02,0.000202377,3071.02,0.000202377,1023.52,915.037,458.605,564.891,11.2445,71.2169,23.1715,3.33488
457.6,3103.38,458.232,3103.38,3127,0.000200435,3127.01,0.000200435,892.397,1036.99,497.923,597.806,8.82842,67.5765,22.2478,3.23488
457.5,3258.95,458.1318,3258.95,3234.62,0.000198407,3234.62,0.000198407,782.736,1180.27,542.345,633.635,6.91063,64.2037,21.3778,3.1393
457.4,3364.53,458.032,3364.53,3394.51,0.000196278,3394.51,0.000196278,690.607,1348.34,592.76,672.725,5.39263,61.0732,20.5574,3.04789
457.3,3580.35,457.932,3580.35,3608.02,0.00019408,3608.02,0.00019408,612.794,1544.41,650.244,715.476,4.1946,58.1628,19.7829,2.96041
457.2,3878.15,457.832,3878.15,3876.33,0.00019174,3876.33,0.00019174,546.693,1770.54,716.114,762.352,3.25198,55.4527,19.0511,2.87662
457.1,4050.78,457.732,4050.78,4198.77,0.000189206,4198.77,0.000189206,490.214,2026.09,791.987,813.887,2.51267,52.925,18.3588,2.79634
457.0,4359.25,457.6318,4359.25,4570.48,0.00018656,4570.48,0.00018656,441.674,2305.32,879.856,870.704,1.93472,50.5641,17.7033,2.71937
456.9,4789.59,457.532,4789.59,4979.36,0.000183711,4979.36,0.000183711,399.722,2594.35,982.191,933.53,1.48444,48.3558,17.0821,2.64552
456.8,5051.59,457.432,5051.59,5403.77,0.000180582,5403.77,0.000180582,363.266,2868.74,1102.06,1003.22,1.13485,46.2873,16.4928,2.57464
456.7,5421.04,457.332,5421.04,5813.42,0.000177281,5813.42,0.000177281,331.422,3094.32,1243.26,1080.78,0.864397,44.3473,15.9333,2.50656
456.6,5859.6,457.232,5859.6,6176.35,0.000173739,6176.35,0.000173739,303.467,3233.96,1410.51,1167.39,0.655935,42.5254,15.4015,2.44114
456.5,6313.62,457.1318,6313.62,6471.77,0.000169911,6471.77,0.000169911,278.814,3260.29,1609.62,1264.46,0.495855,40.8123,14.8958,2.37824
456.4,6801.27,457.032,6801.26,6702.3,0.000165786,6702.3,0.000165786,256.974,3167.76,1847.57,1373.69,0.373395,39.1997,14.4145,2.31774
456.3,7127.06,456.932,7127.06,6896.71,0.000161342,6896.71,0.000161342,237.546,2975.34,2132.57,1497.08,0.280078,37.6799,13.956,2.25952
456.2,7514.6,456.832,7514.6,7100.7,0.000156685,7100.7,0.000156685,220.196,2717.61,2473.64,1637.07,0.209249,36.246,13.5189,2.20346
456.1,7994.5,456.732,7994.5,7362.29,0.000151775,7362.29,0.000151775,204.644,2431.31,2879.45,1796.58,0.155704,34.8916,13.1019,2.14945
456.0,8265.29,456.6318,8265.29,7719.64,0.000146552,7719.64,0.000146552,190.654,2145.52,3355.75,1979.19,0.11539,33.6111,12.7038,2.09741
455.9,8768.07,456.532,8768.07,8193.03,0.000141152,8193.03,0.000141152,178.027,1878.53,3900.42,2189.2,0.0851631,32.3993,12.3235,2.04723
455.8,9263.71,456.432,9263.71,8778.39,0.000135423,8778.39,0.000135423,166.595,1639.26,4495.38,2431.88,0.0625933,31.2513,11.9599,1.99882
455.7,9548.36,456.332,9548.36,9440.69,0.00012937,9440.69,0.00012937,156.214,1430.22,5096.87,2713.61,0.0458122,30.1628,11.6121,1.95211
455.6,9985.8,456.232,9985.8,10111.2,0.000123132,10111.2,0.000123132,146.761,1250.3,5629.76,3042.04,0.0333883,29.1298,11.2792,1.90701
455.5,10372.4,456.1318,10372.4,10699.4,0.000116607,10699.4,0.000116607,138.13,1096.64,5997.49,3426.16,0.02423,28.1486,10.9603,1.86346
455.4,10573.3,456.032,10573.3,11127,0.00010983,11127,0.00010983,130.229,965.804,6115.24,3876.07,0.0175082,27.2158,10.6547,1.82138
455.3,11192.4,455.932,11192.4,11370.5,0.000102922,11370.5,0.000102922,122.98,854.414,5952.52,4402.06,0.0125963,26.3282,10.3617,1.78071
455.2,11583.3,455.832,11583.3,11476.7,9.56088e-05,11476.7,9.56088e-05,116.313,759.396,5551.04,5012.61,0.00902295,25.4832,10.0806,1.74139
455.1,11727.4,455.732,11727.4,11535.2,8.80405e-05,11535.2,8.80405e-05,110.168,678.088,5000.56,5710.23,0.0064349,24.6779,9.81064,1.70335
455.0,11942.8,455.6318,11942.8,11628.3,8.03782e-05,11628.3,8.03782e-05,104.493,608.238,4395.82,6484.6,0.0045689,23.9099,9.55138,1.66654
454.9,11975.1,455.532,11975.1,11790.7,7.2575e-05,11790.7,7.2575e-05,99.2419,547.973,3806.9,7302.43,0.00322957,23.1771,9.30222,1.63091
454.8,11784.9,455.432,11784.9,11991.6,6.47508e-05,11991.6,6.47508e-05,94.3732,495.742,3272.75,8095.6,0.00227265,22.4772,9.06265,1.59641
454.7,11808,455.332,11808,12133,5.70508e-05,12133,5.70508e-05,89.8512,450.267,2808.15,8752.55,0.00159206,21.8084,8.83219,1.56299
454.6,11503,455.232,11503,12064,4.93357e-05,12064,4.93357e-05,85.6441,410.494,2413.48,9123.05,0.00111025,21.1688,8.61037,1.53061
454.5,11292.1,455.1318,11292.1,11619.7,4.18199e-05,11619.7,4.18199e-05,81.7235,375.554,2082.24,9049.7,0.000770732,20.5569,8.39678,1.49922
454.4,10723.1,455.032,10723.1,10688.7,3.44419e-05,10688.7,3.44419e-05,78.0641,344.729,1805.55,8430.68,0.000532596,19.9709,8.19101,1.46879
454.3,9878.66,454.932,9878.66,9285.92,2.74357e-05,9285.92,2.74357e-05,74.6435,317.421,1574.5,7290.51,0.00036635,19.4095,7.99269,1.43927
454.2,8254.69,454.832,8254.69,7579.04,2.09813e-05,7579.04,2.09813e-05,71.4414,293.135,1381.07,5805.31,0.000250835,18.8714,7.80147,1.41064
454.1,6096.11,454.732,6096.11,5828.75,1.55878e-05,5828.75,1.55878e-05,68.4397,271.454,1218.45,4243.05,0.000170949,18.3552,7.617,1.38285
454.0,4145.67,454.6318,4145.67,4275.84,1.16048e-05,4275.84,1.16048e-05,65.6222,252.029,1081.05,2850.49,0.000115964,17.8598,7.43898,1.35587
453.9,2601.72,454.532,2601.72,3055.67,8.89611e-06,3055.67,8.89611e-06,62.9741,234.567,964.296,1767.85,7.8298e-05,17.3841,7.26711,1.32967
453.8,1747.52,454.432,1747.52,2186.82,7.1962e-06,2186.82,7.1962e-06,60.4823,218.817,864.526,1017.66,5.26188e-05,16.9271,7.10111,1.30423
453.7,1298.28,454.332,1298.28,1612.65,6.05442e-06,1612.65,6.05442e-06,58.1347,204.569,778.78,546.46,3.51955e-05,16.4878,6.94072,1.2795
453.6,858.614,454.232,858.614,1251.12,5.20615e-06,1251.12,5.20615e-06,55.9205,191.642,704.673,274.778,2.34305e-05,16.0653,6.78569,1.25547
453.5,664.496,454.1318,664.496,1027.24,4.64515e-06,1027.24,4.64515e-06,53.8298,179.879,640.28,129.722,1.55245e-05,15.6588,6.63578,1.23212
453.4,626.482,454.032,626.482,885.595,4.21099e-06,885.595,4.21099e-06,51.8536,169.149,584.039,57.5865,1.02375e-05,15.2675,6.49077,1.2094
453.3,499.832,453.932,499.832,790.479,3.80166e-06,790.479,3.80166e-06,49.9838,159.335,534.675,24.0565,6.71886e-06,14.8906,6.35044,1.18731
453.2,485.638,453.832,485.638,721.064,3.47508e-06,721.064,3.47508e-06,48.2129,150.338,491.146,9.45873,4.38857e-06,14.5274,6.21461,1.16582
453.1,394.035,453.732,394.035,666.103,3.15778e-06,666.103,3.15778e-06,46.534,142.072,452.592,3.49991,2.85278e-06,14.1773,6.08308,1.14491
453.0,265.582,453.6318,265.582,619.841,2.90032e-06,619.841,2.90032e-06,44.941,134.459,418.302,1.21827,1.84556e-06,13.8397,5.95568,1.12455
452.9,332.893,453.532,332.893,579.397,2.7268e-06,579.397,2.7268e-06,43.4281,127.435,387.684,0.398734,1.18821e-06,13.5139,5.83222,1.10473
452.8,298.331,453.432,298.331,543.294,2.50929e-06,543.294,2.50929e-06,41.99,120.94,360.244,0.122643,7.61313e-07,13.1995,5.71255,1.08543
452.7,289.602,453.332,289.602,510.704,2.31437e-06,510.704,2.31437e-06,40.6219,114.924,335.564,0.0354311,4.85434e-07,12.8959,5.59653,1.06663
452.6,279.801,453.232,279.801,481.097,2.12515e-06,481.097,2.12515e-06,39.3194,109.34,313.293,0.00960886,3.08028e-07,12.6026,5.48399,1.04832
452.5,178.571,453.1318,178.571,454.088,1.94234e-06,454.088,1.94234e-06,38.0783,104.15,293.132,0.002445,1.94509e-07,12.3192,5.37481,1.03047
452.4,199.029,453.032,199.029,429.368,1.82566e-06,429.368,1.82566e-06,36.8949,99.317,274.829,0.000583438,1.22228e-07,12.0451,5.26884,1.01307
452.3,206.596,452.932,206.596,406.681,1.69562e-06,406.681,1.69562e-06,35.7656,94.8095,258.163,0.000130503,7.64335e-08,11.7802,5.16598,0.996115
452.2,181.093,452.832,181.093,385.806,1.56064e-06,385.806,1.56064e-06,34.6872,90.5993,242.95,2.73513e-05,4.75633e-08,11.5238,5.06609,0.979577
452.1,180.489,452.732,180.489,366.551,1.44232e-06,366.551,1.44232e-06,33.6567,86.661,229.026,5.369e-06,2.94531e-08,11.2757,4.96906,0.963447
452.0,131.695,452.6318,131.695,348.752,1.32439e-06,348.752,1.32439e-06,32.6713,82.9718,216.251,9.86771e-07,1.81493e-08,11.0355,4.87479,0.947712
451.9,152.794,452.532,152.794,332.263,1.23834e-06,332.263,1.23834e-06,31.7284,79.5114,204.505,1.69748e-07,1.11289e-08,10.8028,4.78317,0.93236
451.8,70.6568,452.432,70.6567,316.957,1.13851e-06,316.957,1.13851e-06,30.8257,76.2614,193.681,2.7323e-08,6.79051e-09,10.5775,4.69411,0.917377
451.7,112.364,452.332,112.364,302.72,1.09234e-06,302.72,1.09234e-06,29.9608,73.2052,183.685,4.11405e-09,4.12298e-09,10.3591,4.60751,0.902752
451.6,175.475,452.232,175.475,289.455,1.01893e-06,289.455,1.01893e-06,29.1318,70.3278,174.436,5.79304e-10,2.491e-09,10.1473,4.52327,0.888473
451.5,180.851,452.1318,180.851,277.073,9.04278e-07,277.073,9.04278e-07,28.3365,67.6157,165.863,7.62877e-11,1.49757e-09,9.94199,4.44132,0.874531
451.4,48.738,452.032,48.738,265.496,7.86114e-07,265.496,7.86114e-07,27.5734,65.0564,157.901,9.39468e-12,8.95875e-10,9.74282,4.36158,0.860914
451.3,146.492,451.932,146.492,254.655,7.5427e-07,254.655,7.5427e-07,26.8405,62.6388,150.494,1.07493e-12,5.33274e-10,9.54956,4.28396,0.847613
451.2,104.461,451.832,104.461,244.487,6.58555e-07,244.487,6.58555e-07,26.1365,60.3527,143.593,1.16484e-13,3.15861e-10,9.36198,4.20839,0.834617
451.1,52.0656,451.732,52.0656,234.937,5.90303e-07,234.937,5.90303e-07,25.4597,58.1888,137.152,0.0,1.86157e-10,9.17986,4.13479,0.821917
451.0,68.5313,451.6318,68.5313,225.954,5.56285e-07,225.954,5.56285e-07,24.8088,56.1385,131.132,0.0,1.09167e-10,9.00299,4.06311,0.809505
450.9,164.431,451.532,164.431,217.495,5.11508e-07,217.495,5.11508e-07,24.1825,54.1942,125.497,0.0,6.37014e-11,8.83118,3.99327,0.797372
450.8,90.4152,451.432,90.4152,209.518,4.04073e-07,209.518,4.04073e-07,23.5795,52.3486,120.215,0.0,3.69858e-11,8.66422,3.92522,0.78551
450.7,61.0,451.332,61,201.987,3.44998e-07,201.987,3.44998e-07,22.9988,50.5952,115.258,0.0,2.13676e-11,8.50195,3.85889,0.77391
450.6,0.0,451.232,-3.05142e-07,194.867,3.05142e-07,194.867,3.05142e-07,22.4393,48.928,110.599,0.0,1.22818e-11,8.34418,3.79422,0.762565
450.5,25.0,451.1318,25,188.131,3.05142e-07,188.131,3.05142e-07,21.8998,47.3415,106.216,0.0,7.02364e-12,8.19075,3.73116,0.751467
450.4,126.0,451.032,126,181.749,2.88807e-07,181.749,2.88807e-07,21.3796,45.8306,102.087,0.0,3.99852e-12,8.04151,3.66966,0.74061
450.3,45.0,450.932,45,175.696,2.06482e-07,175.696,2.06482e-07,20.8776,44.3905,98.1923,0.0,2.26283e-12,7.8963,3.60967,0.729986
450.2,99.0,450.832,99,169.951,1.7708e-07,169.951,1.7708e-07,20.3931,43.017,94.5156,0.0,1.2743e-12,7.75498,3.55113,0.719589
450.1,92.0,450.732,92,164.493,1.12396e-07,164.493,1.12396e-07,19.9252,41.706,91.0405,0.0,7.1475e-13,7.61742,3.494,0.709413
450.0,80.0,450.6318,80,159.301,5.22851e-08,159.301,5.22851e-08,19.4732,40.4538,87.7527,0.0,3.9969e-13,7.48347,3.43824,0.699451