File: XPS/LG4X-result/MX-HT-0.5-Ti2p_4.csv
#No of rows lightened (2D detector)1(if not using 2D detector, value is 1 and can be ignored!)
raw_x,raw_y,corrected x,data-bg,sum_components,bg,sum_fit,C_1,C_2,C_3,C_4,C_5,C_6,C_7,C_8
470.0,366.0,470.6318,366.0,142.991,0.0,142.991,11.6575,9.59053,12.2061,27.9801,55.954,12.3294,9.18348,4.0902
469.9,458.0,470.5318,458.0,145.731,0.0,145.731,11.8662,9.73408,12.3748,28.3385,57.1427,12.6136,9.42805,4.23271
469.8,322.0,470.432,322.0,148.555,0.0,148.555,12.0806,9.88087,12.547,28.7039,58.3694,12.9077,9.68248,4.38278
469.7,415.0,470.332,415.0,151.467,0.0,151.467,12.3009,10.031,12.7229,29.0763,59.636,13.2122,9.9473,4.54094
469.6,354.0,470.2318,354.0,154.473,0.0,154.473,12.5272,10.1846,12.9024,29.456,60.9441,13.5275,10.2231,4.70778
469.5,329.0,470.1318,329.0,157.575,0.0,157.575,12.7598,10.3417,13.0858,29.8432,62.2956,13.8542,10.5105,4.88396
469.4,363.0,470.0318,363.0,160.778,0.0,160.778,12.999,10.5025,13.2731,30.2381,63.6924,14.1929,10.8101,5.07017
469.3,299.0,469.932,299.0,164.088,0.0,164.088,13.2449,10.6671,13.4645,30.6408,65.1364,14.5441,11.1226,5.26718
469.2,316.0,469.832,316.0,167.508,0.0,167.508,13.4979,10.8356,13.66,31.0517,66.63,14.9084,11.4488,5.47586
469.1,313.0,469.7318,313.0,171.045,0.0,171.045,13.7582,11.008,13.8598,31.4708,68.1753,15.2865,11.7895,5.69713
469.0,213.0,469.6318,213.0,174.705,0.0,174.705,14.026,11.1847,14.064,31.8985,69.7748,15.6792,12.1456,5.93202
468.9,206.0,469.5318,206.0,178.493,0.0,178.493,14.3018,11.3656,14.2728,32.335,71.431,16.0871,12.518,6.18166
468.8,140.0,469.432,140.0,182.416,0.0,182.416,14.5857,11.5509,14.4862,32.7805,73.1466,16.511,12.9076,6.44732
468.7,217.0,469.332,217.0,186.481,0.0,186.481,14.8782,11.7408,14.7045,33.2352,74.9245,16.9519,13.3157,6.73038
468.6,211.0,469.2318,211.0,190.696,0.0,190.696,15.1796,11.9354,14.9277,33.6995,76.7678,17.4106,13.7432,7.03239
468.5,212.0,469.1318,212.0,195.069,0.0,195.069,15.4902,12.1349,15.1561,34.1736,78.6795,17.8881,14.1916,7.35507
468.4,223.0,469.0318,223.0,199.608,0.0,199.608,15.8104,12.3394,15.3897,34.6577,80.6633,18.3854,14.6622,7.70033
468.3,146.0,468.932,146.0,204.323,0.0,204.323,16.1406,12.5491,15.6288,35.1522,82.7226,18.9036,15.1563,8.07032
468.2,195.0,468.832,195.0,209.225,0.0,209.225,16.4813,12.7642,15.8734,35.6573,84.8615,19.4439,15.6758,8.46743
468.1,161.0,468.7318,161.0,214.323,0.0,214.323,16.8328,12.9849,16.1239,36.1734,87.0839,20.0076,16.2222,8.89438
468.0,107.0,468.6318,107.0,219.63,0.0,219.63,17.1957,13.2114,16.3803,36.7007,89.3943,20.596,16.7974,9.35419
467.9,87.0,468.5318,87.0,225.159,0.0,225.159,17.5705,13.4438,16.6429,37.2397,91.7974,21.2106,17.4036,9.8503
467.8,117.0,468.432,117.0,230.923,0.0,230.923,17.9576,13.6824,16.9119,37.7906,94.2982,21.853,18.043,10.3866
467.7,0.0,468.332,0.0,236.938,0.0,236.938,18.3576,13.9274,17.1874,38.3538,96.902,22.5249,18.7179,10.9675
467.6,104.403,468.2318,104.403,243.221,0.0,243.221,18.7711,14.179,17.4697,38.9297,99.6145,23.228,19.4311,11.5981
467.5,78.1081,468.1318,78.1081,249.79,0.0,249.79,19.1987,14.4375,17.759,39.5186,102.442,23.9643,20.1856,12.284
467.4,22.4966,468.0318,22.4966,256.664,0.0,256.664,19.6411,14.7031,18.0555,40.121,105.39,24.736,20.9844,13.032
467.3,63.83,467.932,63.83,263.865,0.0,263.865,20.0989,14.9761,18.3596,40.7373,108.467,25.5453,21.8311,13.8496
467.2,59.3055,467.832,59.3055,271.419,0.0,271.419,20.5729,15.2567,18.6713,41.3679,111.68,26.3948,22.7296,14.7457
467.1,59.7654,467.7318,59.7654,279.352,0.0,279.352,21.0638,15.5454,18.9911,42.0132,115.037,27.2869,23.6842,15.7304
467.0,104.399,467.6318,104.399,287.693,0.0,287.693,21.5725,15.8422,19.3191,42.6737,118.546,28.2248,24.6995,16.8156
466.9,89.1468,467.5318,89.1468,296.478,0.0,296.478,22.0997,16.1477,19.6557,43.3498,122.217,29.2114,25.7808,18.0154
466.8,100.881,467.432,100.881,305.742,0.0,305.742,22.6465,16.462,20.0012,44.0422,126.06,30.2503,26.9338,19.3462
466.7,125.756,467.332,125.756,315.529,0.0,315.529,23.2138,16.7856,20.3558,44.7513,130.086,31.3451,28.1649,20.8272
466.6,217.08,467.2318,217.08,325.888,0.0,325.888,23.8026,17.1188,20.72,45.4776,134.306,32.5,29.4814,22.4817
466.5,171.581,467.1318,171.581,336.872,0.0,336.872,24.4141,17.4621,21.094,46.2217,138.732,33.7192,30.891,24.337
466.4,250.21,467.0318,250.21,348.544,0.0,348.544,25.0494,17.8157,21.4782,46.9842,143.38,35.0078,32.4028,26.4264
466.3,198.945,466.932,198.945,360.978,0.0,360.978,25.7097,18.1801,21.873,47.7657,148.263,36.3708,34.0266,28.7897
466.2,158.324,466.832,158.324,374.258,0.0,374.258,26.3965,18.5559,22.2787,48.5668,153.396,37.8143,35.7736,31.4754
466.1,271.986,466.7318,271.986,388.481,0.0,388.481,27.111,18.9434,22.6959,49.3883,158.799,39.3444,37.6564,34.5432
466.0,254.018,466.6318,254.018,403.766,0.0,403.766,27.8549,19.3431,23.1248,50.2307,164.489,40.9683,39.6891,38.0661
465.9,270.041,466.5318,270.041,420.249,0.0,420.249,28.6297,19.7556,23.566,51.0949,170.486,42.6937,41.8878,42.1348
465.8,275.147,466.432,275.147,438.096,0.0,438.096,29.4373,20.1814,24.02,51.9815,176.813,44.5291,44.2707,46.8627
465.7,358.594,466.332,358.594,457.508,0.0,457.508,30.2794,20.621,24.4871,52.8914,183.495,46.4839,46.8585,52.392
465.6,562.15,466.2318,562.15,478.729,0.0,478.729,31.158,21.0752,24.968,53.8253,190.557,48.5685,49.6747,58.9025
465.5,484.191,466.1318,484.191,502.059,0.0,502.059,32.0753,21.5445,25.4632,54.7842,198.028,50.7946,52.7464,66.6227
465.4,399.604,466.0318,399.604,527.868,0.0,527.868,33.0336,22.0297,25.9733,55.7688,205.939,53.175,56.1046,75.8439
465.3,585.408,465.932,585.408,556.619,0.0,556.619,34.0354,22.5313,26.4988,56.7803,214.326,55.7242,59.7849,86.9382
465.2,708.405,465.832,708.405,588.884,0.0,588.884,35.0832,23.0503,27.0404,57.8194,223.225,58.4582,63.8286,100.379
465.1,836.371,465.7318,836.371,625.371,0.0,625.371,36.1801,23.5873,27.5988,58.8873,232.677,61.3948,68.2834,116.762
465.0,852.895,465.6318,852.895,666.937,0.0,666.937,37.329,24.1433,28.1746,59.985,242.728,64.5545,73.205,136.818
464.9,821.361,465.5318,821.361,714.576,0.0,714.576,38.5333,24.7191,28.7686,61.1137,253.427,67.9597,78.658,161.396
464.8,874.912,465.432,874.912,769.33,0.0,769.33,39.7967,25.3158,29.3815,62.2745,264.828,71.6362,84.7185,191.379
464.7,813.432,465.332,813.432,832.051,0.0,832.051,41.1229,25.9342,30.0142,63.4685,276.991,75.6127,91.4754,227.432
464.6,940.204,465.2318,940.204,902.865,0.0,902.865,42.5163,26.5755,30.6675,64.6973,289.981,79.9222,99.034,269.471
464.5,1049.89,465.1318,1049.89,980.233,0.0,980.233,43.9814,27.2408,31.3424,65.962,303.87,84.6018,107.518,315.717
464.4,1065.06,465.0318,1065.06,1059.77,0.0,1059.77,45.5233,27.9314,32.0397,67.264,318.736,89.6941,117.076,361.508
464.3,1169.69,464.932,1169.69,1133.78,0.0,1133.78,47.1473,28.6484,32.7605,68.605,334.668,95.2475,127.881,398.826
464.2,1163.7,464.832,1163.7,1193.22,0.0,1193.22,48.8593,29.3934,33.5059,69.9863,351.761,101.318,140.141,418.253
464.1,1131.56,464.7318,1131.56,1232.48,0.0,1232.48,50.6659,30.1677,34.277,71.4098,370.12,107.969,154.105,413.769
464.0,1146.36,464.6318,1146.36,1253.54,0.0,1253.54,52.574,30.9729,35.0749,72.877,389.862,115.274,170.067,386.833
463.9,1345.99,464.5318,1345.99,1264.84,0.0,1264.84,54.5914,31.8106,35.901,74.3899,411.116,123.319,188.375,345.334
463.8,1301.21,464.432,1301.21,1276.4,0.0,1276.4,56.7265,32.6827,36.7566,75.9502,434.025,132.203,209.441,298.617
463.7,1267.13,464.332,1267.13,1295.85,0.0,1295.85,58.9887,33.5911,37.643,77.5601,458.745,142.041,233.741,253.538
463.6,1346.22,464.2318,1346.22,1327.53,0.0,1327.53,61.3881,34.5377,38.5618,79.2216,485.45,152.967,261.82,213.586
463.5,1363.69,464.1318,1363.69,1373.45,0.0,1373.45,63.936,35.5247,39.5146,80.937,514.333,165.139,294.278,179.788
463.4,1563.99,464.0318,1563.99,1434.37,0.0,1434.37,66.6449,36.5545,40.5031,82.7086,545.608,178.741,331.737,151.869
463.3,1406.47,463.932,1406.47,1510.55,0.0,1510.55,69.5284,37.6295,41.529,84.5388,579.513,193.991,374.775,129.041
463.2,1564.94,463.832,1564.94,1602.04,0.0,1602.04,72.6018,38.7525,42.5944,86.4304,616.31,211.144,423.791,110.415
463.1,1742.71,463.7318,1742.71,1708.66,0.0,1708.66,75.8821,39.9263,43.7011,88.386,656.292,230.502,478.79,95.1802
463.0,1892.75,463.6318,1892.75,1829.72,0.0,1829.72,79.3881,41.154,44.8515,90.4086,699.787,252.421,539.057,82.6556
462.9,2029.9,463.5318,2029.9,1963.62,0.0,1963.62,83.1408,42.439,46.0478,92.5013,747.158,277.32,602.721,72.2921
462.8,2012.52,463.432,2012.52,2107.4,0.0,2107.4,87.1637,43.7848,47.2924,94.6673,798.808,305.692,666.337,63.6557
462.7,2196.77,463.332,2196.77,2256.57,0.0,2256.57,91.483,45.1954,48.5881,96.9101,855.189,338.11,724.692,56.4059
462.6,2371.41,463.232,2371.41,2405.53,0.0,2405.53,96.1285,46.6749,49.9376,99.2334,916.799,375.235,771.246,50.2762
462.5,2542.39,463.1318,2542.39,2548.86,0.0,2548.86,101.133,48.2279,51.3439,101.641,984.191,417.816,799.447,45.0572
462.4,2604.27,463.032,2604.27,2683.29,0.0,2683.29,106.535,49.8593,52.8103,104.137,1057.97,466.674,804.714,40.584
462.3,2654.58,462.932,2654.58,2809.35,0.0,2809.35,112.377,51.5744,54.3403,106.726,1138.81,522.664,786.136,36.7258
462.2,2960.26,462.832,2960.26,2931.67,0.0,2931.67,118.707,53.3791,55.9375,109.412,1227.41,586.595,746.846,33.378
462.1,3114.72,462.732,3114.72,3057.53,0.0,3057.53,125.58,55.2796,57.6059,112.201,1324.53,659.085,692.791,30.457
462.0,3277.41,462.6318,3277.41,3194.64,0.0,3194.64,133.06,57.2828,59.3499,115.098,1430.91,740.313,630.731,27.8949
461.9,3516.65,462.532,3516.65,3349.03,0.0,3349.03,141.219,59.3962,61.174,118.108,1547.29,829.648,566.559,25.6364
461.8,3789.86,462.432,3789.86,3523.64,0.0,3523.64,150.14,61.628,63.0832,121.237,1674.27,925.15,504.497,23.6365
461.7,3842.34,462.332,3842.34,3717.61,0.0,3717.61,159.921,63.9871,65.0829,124.491,1812.21,1023.01,447.056,21.8578
461.6,3899.24,462.232,3899.24,3926.08,0.0,3926.08,170.672,66.4834,67.1789,127.879,1961.04,1117.16,395.398,20.2694
461.5,4252.72,462.1318,4252.72,4140.42,0.0,4140.42,182.523,69.1275,69.3773,131.405,2120,1199.36,349.786,18.8455
461.4,4216.43,462.032,4216.43,4349.36,0.0,4349.36,195.629,71.9313,71.685,135.08,2287.2,1260.31,309.959,17.5645
461.3,4347.5,461.932,4347.5,4540.78,0.0,4540.78,210.166,74.9079,74.1093,138.91,2459.15,1291.73,275.396,16.4081
461.2,4600.06,461.832,4600.06,4703.85,0.0,4703.85,226.348,78.0715,76.6581,142.904,2630.16,1288.86,245.484,15.361
461.1,4963.99,461.732,4963.99,4830.18,0.0,4830.18,244.423,81.4381,79.3402,147.073,2791.74,1252.15,219.607,14.4098
461.0,4964.33,461.6318,4964.33,4913.5,0.0,4913.5,264.692,85.0252,82.1648,151.426,2932.37,1187.08,197.194,13.5434
460.9,4855.26,461.532,4855.26,4948.12,0.0,4948.12,287.511,88.8523,85.1423,155.975,3037.85,1102.29,177.738,12.7521
460.8,4847.73,461.432,4847.73,4927.97,0.0,4927.97,313.311,92.9412,88.2838,160.731,3092.85,1007.03,160.8,12.0275
460.7,4657.44,461.332,4657.44,4847.52,0.0,4847.52,342.614,97.3159,91.6015,165.707,3083.72,909.199,146.004,11.3624
460.6,4818.03,461.232,4818.03,4704.61,0.0,4704.61,376.053,102.003,95.1088,170.917,3002.24,814.503,133.034,10.7506
460.5,4582.34,461.1318,4582.34,4503.7,0.0,4503.7,414.406,107.034,98.8203,176.375,2848.85,726.406,121.622,10.1865
460.4,4360.87,461.032,4360.87,4257.42,0.0,4257.42,458.628,112.441,102.752,182.097,2633.7,646.595,111.544,9.66528
460.3,4064.41,460.932,4064.41,3985.2,0.0,3985.2,509.897,118.264,106.922,188.101,2374.68,575.536,102.611,9.18281
460.2,3704.41,460.832,3704.41,3709.5,0.0,3709.5,569.677,124.544,111.349,194.406,2093.17,512.957,94.6656,8.73533
460.1,3452.05,460.732,3452.05,3451.66,0.0,3451.66,639.789,131.331,116.055,201.032,1809.37,458.195,87.5731,8.31958
460.0,3177.66,460.6318,3177.66,3228.92,0.0,3228.92,722.499,138.68,121.064,208,1539.1,410.425,81.2208,7.93263
459.9,2991.48,460.532,2991.48,3053.48,0.0,3053.48,820.622,146.653,126.402,215.335,1292.59,368.793,75.5129,7.57191
459.8,2863.09,460.432,2863.09,2933.11,0.0,2933.11,937.622,155.321,132.098,223.063,1074.92,332.489,70.3682,7.2351
459.7,2881.28,460.332,2881.28,2872.55,0.0,2872.55,1077.7,164.768,138.185,231.211,887.274,300.778,65.7173,6.92016
459.6,2852.42,460.232,2852.42,2874.83,0.0,2874.83,1245.77,175.085,144.698,239.812,728.324,273.013,61.5006,6.62524
459.5,3015.08,460.1318,3015.08,2942.25,0.0,2942.25,1447.26,186.383,151.68,248.899,595.375,248.634,57.6673,6.34868
459.4,3079.62,460.032,3079.62,3076.43,0.0,3076.43,1687.37,198.785,159.174,258.509,485.173,227.162,54.1734,6.08901
459.3,3293.23,459.932,3293.23,3277.23,0.0,3277.23,1969.45,212.437,167.233,268.682,394.411,208.188,50.9808,5.84487
459.2,3617.92,459.832,3617.92,3539.88,0.0,3539.88,2291.96,227.508,175.913,279.464,319.998,191.367,48.0567,5.61507
459.1,3927.06,459.732,3927.06,3850.19,0.0,3850.19,2643.45,244.196,185.279,290.903,259.187,176.404,45.3725,5.3985
459.0,4243.61,459.6318,4243.61,4178.51,0.0,4178.51,2996.56,262.732,195.406,303.053,209.609,163.05,42.903,5.19417
458.9,4435.13,459.532,4435.13,4476.71,0.0,4476.71,3304.99,283.39,206.375,315.975,169.262,151.095,40.6263,5.00118
458.8,4488.59,459.432,4488.59,4685.12,0.0,4685.12,3510.43,306.495,218.283,329.734,136.475,140.357,38.5233,4.81871
458.7,4595.67,459.332,4595.67,4753.73,0.0,4753.73,3563.88,332.43,231.238,344.404,109.867,130.684,36.577,4.64601
458.6,4712.62,459.232,4712.62,4667.77,0.0,4667.77,3451.19,361.655,245.364,360.065,88.2998,121.945,34.7724,4.4824
458.5,4585.53,459.1318,4585.53,4456.13,0.0,4456.13,3201.5,394.721,260.805,376.809,70.8402,114.028,33.0964,4.32725
458.4,4185.4,459.032,4185.4,4174.4,0.0,4174.4,2870.37,432.29,277.726,394.737,56.7249,106.835,31.537,4.17999
458.3,3862.49,458.932,3862.49,3878.66,0.0,3878.66,2513.47,475.162,296.319,413.962,45.3298,100.284,30.084,4.0401
458.2,3833.21,458.832,3833.21,3609.14,0.0,3609.14,2170.33,524.306,316.808,434.61,36.1453,94.3029,28.728,3.9071
458.1,3541.69,458.732,3541.69,3387.85,0.0,3387.85,1861.86,580.896,339.453,456.823,28.7555,88.8287,27.4606,3.78054
458.0,3227.83,458.6318,3227.83,3223.46,0.0,3223.46,1595.22,646.358,364.561,480.762,22.8209,83.8073,26.2743,3.66001
457.9,3133.4,458.532,3133.4,3117.19,0.0,3117.19,1369.71,722.418,392.494,506.608,18.0648,79.1911,25.1625,3.54514
457.8,3098.46,458.432,3098.46,3067.18,0.0,3067.18,1181.02,811.158,423.679,534.567,14.2616,74.9387,24.1191,3.43558
457.7,2972.91,458.332,2972.91,3071.01,0.0,3071.01,1023.74,915.058,458.626,564.87,11.2276,71.0135,23.1386,3.33101
457.6,3103.38,458.232,3103.38,3126.99,0.0,3126.99,892.6,1037.01,497.945,597.783,8.81332,67.3834,22.2162,3.23113
457.5,3258.95,458.1318,3258.95,3234.6,0.0,3234.6,782.918,1180.3,542.37,633.611,6.89736,64.0201,21.3474,3.13566
457.4,3364.53,458.032,3364.53,3394.48,0.0,3394.48,690.77,1348.37,592.787,672.699,5.3811,60.8985,20.5282,3.04436
457.3,3580.35,457.932,3580.35,3608,0.0,3608,612.94,1544.44,650.273,715.45,4.18469,57.9964,19.7548,2.95697
457.2,3878.15,457.832,3878.15,3876.3,0.0,3876.3,546.825,1770.57,716.146,762.324,3.24355,55.2939,19.024,2.87329
457.1,4050.78,457.732,4050.78,4198.75,0.0,4198.75,490.333,2026.13,792.022,813.857,2.50556,52.7735,18.3327,2.7931
457.0,4359.25,457.6318,4359.25,4570.46,0.0,4570.46,441.783,2305.37,879.895,870.671,1.92877,50.4193,17.6782,2.71621
456.9,4789.59,457.532,4789.59,4979.34,0.0,4979.34,399.821,2594.4,982.234,933.496,1.4795,48.2173,17.0578,2.64245
456.8,5051.59,457.432,5051.59,5403.76,0.0,5403.76,363.357,2868.79,1102.1,1003.18,1.13077,46.1547,16.4693,2.57165
456.7,5421.04,457.332,5421.04,5813.42,0.0,5813.42,331.505,3094.37,1243.31,1080.74,0.861064,44.2202,15.9106,2.50365
456.6,5859.6,457.232,5859.6,6176.35,0.0,6176.35,303.544,3234.01,1410.57,1167.34,0.653226,42.4035,15.3796,2.43831
456.5,6313.62,457.1318,6313.62,6471.77,0.0,6471.77,278.884,3260.35,1609.68,1264.42,0.493668,40.6953,14.8746,2.37548
456.4,6801.27,457.032,6801.27,6702.31,0.0,6702.31,257.039,3167.81,1847.65,1373.64,0.37164,39.0873,14.394,2.31505
456.3,7127.06,456.932,7127.06,6896.72,0.0,6896.72,237.607,2975.39,2132.66,1497.03,0.278679,37.5718,13.9361,2.2569
456.2,7514.6,456.832,7514.6,7100.71,0.0,7100.71,220.253,2717.66,2473.73,1637.01,0.208141,36.1419,13.4996,2.2009
456.1,7994.5,456.732,7994.5,7362.31,0.0,7362.31,204.696,2431.36,2879.55,1796.52,0.154832,34.7915,13.0832,2.14696
456.0,8265.29,456.6318,8265.29,7719.67,0.0,7719.67,190.703,2145.56,3355.87,1979.12,0.114707,33.5147,12.6857,2.09497
455.9,8768.07,456.532,8768.07,8193.05,0.0,8193.05,178.073,1878.57,3900.55,2189.13,0.0846314,32.3063,12.3059,2.04485
455.8,9263.71,456.432,9263.71,8778.41,0.0,8778.41,166.638,1639.29,4495.52,2431.8,0.0621819,31.1616,11.9428,1.9965
455.7,9548.36,456.332,9548.36,9440.72,0.0,9440.72,156.255,1430.26,5097.02,2713.52,0.0454957,30.0762,11.5955,1.94984
455.6,9985.8,456.232,9985.8,10111.2,0.0,10111.2,146.799,1250.33,5629.92,3041.95,0.0331462,29.0461,11.2631,1.9048
455.5,10372.4,456.1318,10372.4,10699.4,0.0,10699.4,138.166,1096.66,5997.64,3426.06,0.0240458,28.0677,10.9447,1.8613
455.4,10573.3,456.032,10573.3,11127,0.0,11127,130.263,965.826,6115.39,3875.96,0.0173688,27.1376,10.6395,1.81927
455.3,11192.4,455.932,11192.4,11370.5,0.0,11370.5,123.012,854.433,5952.67,4401.94,0.0124915,26.2526,10.3469,1.77864
455.2,11583.3,455.832,11583.3,11476.7,0.0,11476.7,116.343,759.414,5551.19,5012.48,0.0089445,25.4099,10.0662,1.73936
455.1,11727.4,455.732,11727.4,11535.2,0.0,11535.2,110.197,678.103,5000.71,5710.1,0.00637652,24.607,9.79663,1.70137
455.0,11942.8,455.6318,11942.8,11628.2,0.0,11628.2,104.521,608.252,4395.96,6484.47,0.00452569,23.8412,9.53774,1.6646
454.9,11975.1,455.532,11975.1,11790.6,0.0,11790.6,99.2677,547.986,3807.03,7302.3,0.00319776,23.1104,9.28894,1.62901
454.8,11784.9,455.432,11784.9,11991.6,0.0,11991.6,94.3978,495.754,3272.87,8095.49,0.00224936,22.4126,9.04971,1.59455
454.7,11808,455.332,11808,12133,0.0,12133,89.8747,450.278,2808.26,8752.46,0.0015751,21.7457,8.81957,1.56117
454.6,11503,455.232,11503,12064,0.0,12064,85.6665,410.504,2413.57,9122.99,0.00109797,21.108,8.59807,1.52883
454.5,11292.1,455.1318,11292.1,11619.7,0.0,11619.7,81.7448,375.563,2082.32,9049.68,0.000761882,20.4977,8.38478,1.49748
454.4,10723.1,455.032,10723.1,10688.7,0.0,10688.7,78.0845,344.737,1805.63,8430.68,0.000526254,19.9135,8.17931,1.46708
454.3,9878.66,454.932,9878.66,9285.95,0.0,9285.95,74.663,317.429,1574.57,7290.52,0.000361829,19.3537,7.98127,1.4376
454.2,8254.69,454.832,8254.69,7579.06,0.0,7579.06,71.4601,293.142,1381.13,5805.31,0.000247629,18.8171,7.79032,1.409
454.1,6096.11,454.732,6096.11,5828.76,0.0,5828.76,68.4576,271.46,1218.51,4243.05,0.000168688,18.3024,7.60611,1.38124
454.0,4145.67,454.6318,4145.67,4275.84,0.0,4275.84,65.6394,252.035,1081.09,2850.48,0.000114378,17.8084,7.42834,1.35429
453.9,2601.72,454.532,2601.72,3055.66,0.0,3055.66,62.9906,234.573,964.339,1767.84,7.7191e-05,17.3341,7.25672,1.32813
453.8,1747.52,454.432,1747.52,2186.81,0.0,2186.81,60.4981,218.823,864.565,1017.65,5.18503e-05,16.8784,7.09096,1.30271
453.7,1298.28,454.332,1298.28,1612.64,0.0,1612.64,58.1499,204.574,778.814,546.452,3.46648e-05,16.4404,6.93079,1.27802
453.6,858.614,454.232,858.614,1251.11,0.0,1251.11,55.9351,191.646,704.704,274.774,2.3066e-05,16.0191,6.77598,1.25402
453.5,664.496,454.1318,664.496,1027.23,0.0,1027.23,53.8439,179.884,640.309,129.719,1.52755e-05,15.6138,6.62628,1.23069
453.4,626.482,454.032,626.482,885.584,0.0,885.584,51.8672,169.153,584.065,57.5853,1.00682e-05,15.2235,6.48148,1.208
453.3,499.832,453.932,499.832,790.466,0.0,790.466,49.9969,159.339,534.699,24.0559,6.60439e-06,14.8477,6.34136,1.18593
453.2,485.638,453.832,485.638,721.05,0.0,721.05,48.2255,150.342,491.168,9.45849,4.31158e-06,14.4856,6.20572,1.16447
453.1,394.035,453.732,394.035,666.089,0.0,666.089,46.5463,142.075,452.613,3.49981,2.80127e-06,14.1365,6.07438,1.14358
453.0,265.582,453.6318,265.582,619.825,0.0,619.825,44.9528,134.463,418.321,1.21823,1.81127e-06,13.7998,5.94716,1.12324
452.9,332.893,453.532,332.893,579.381,0.0,579.381,43.4395,127.438,387.702,0.398723,1.16551e-06,13.475,5.82388,1.10345
452.8,298.331,453.432,298.331,543.277,0.0,543.277,42.0011,120.943,360.26,0.12264,7.46364e-07,13.1615,5.70438,1.08417
452.7,289.602,453.332,289.602,510.686,0.0,510.686,40.6326,114.927,335.579,0.0354301,4.7564e-07,12.8588,5.58852,1.06539
452.6,279.801,453.232,279.801,481.079,0.0,481.079,39.3297,109.343,313.307,0.00960857,3.01645e-07,12.5663,5.47614,1.0471
452.5,178.571,453.1318,178.571,454.07,0.0,454.07,38.0883,104.153,293.146,0.00244493,1.9037e-07,12.2837,5.36711,1.02927
452.4,199.029,453.032,199.029,429.35,0.0,429.35,36.9046,99.3195,274.841,0.00058342,1.19559e-07,12.0105,5.2613,1.0119
452.3,206.596,452.932,206.596,406.662,0.0,406.662,35.775,94.8119,258.175,0.000130499,7.47213e-08,11.7462,5.15858,0.994957
452.2,181.093,452.832,181.093,385.787,0.0,385.787,34.6963,90.6015,242.961,2.73504e-05,4.64706e-08,11.4906,5.05884,0.978438
452.1,180.489,452.732,180.489,366.532,0.0,366.532,33.6655,86.6631,229.036,5.36884e-06,2.87594e-08,11.2432,4.96195,0.962327
452.0,131.695,452.6318,131.695,348.733,0.0,348.733,32.6799,82.9739,216.261,9.86741e-07,1.77111e-08,11.0037,4.86781,0.946611
451.9,152.794,452.532,152.794,332.244,0.0,332.244,31.7368,79.5134,204.515,1.69743e-07,1.08536e-08,10.7717,4.77633,0.931276
451.8,70.6568,452.432,70.6568,316.937,0.0,316.937,30.8338,76.2633,193.69,2.73222e-08,6.6185e-09,10.547,4.68739,0.91631
451.7,112.364,452.332,112.364,302.701,0.0,302.701,29.9687,73.207,183.693,4.11395e-09,4.01605e-09,10.3292,4.60091,0.901702
451.6,175.475,452.232,175.475,289.436,0.0,289.436,29.1394,70.3296,174.444,5.79283e-10,2.42487e-09,10.1181,4.51679,0.887441
451.5,180.851,452.1318,180.851,277.054,0.0,277.054,28.344,67.6173,165.87,7.62848e-11,1.45689e-09,9.91336,4.43496,0.873514
451.4,48.738,452.032,48.738,265.477,0.0,265.477,27.5806,65.058,157.908,9.39433e-12,8.70976e-10,9.71476,4.35533,0.859913
451.3,146.492,451.932,146.492,254.636,0.0,254.636,26.8476,62.6404,150.501,1.07489e-12,5.18118e-10,9.52206,4.27782,0.846627
451.2,104.461,451.832,104.461,244.468,0.0,244.468,26.1434,60.3542,143.599,1.1648e-13,3.06683e-10,9.33502,4.20236,0.833646
451.1,52.0656,451.732,52.0656,234.918,0.0,234.918,25.4664,58.1902,137.158,0.0,1.80627e-10,9.15343,4.12887,0.820962
451.0,68.5313,451.6318,68.5313,225.936,0.0,225.936,24.8153,56.1399,131.138,0.0,1.05855e-10,8.97707,4.05729,0.808564
450.9,164.431,451.532,164.431,217.477,0.0,217.477,24.1888,54.1955,125.503,0.0,6.1726e-11,8.80574,3.98755,0.796445
450.8,90.4152,451.432,90.4152,209.5,0.0,209.5,23.5857,52.3499,120.221,0.0,3.58143e-11,8.63927,3.9196,0.784596
450.7,61.0,451.332,61.0,201.968,0.0,201.968,23.0049,50.5964,115.263,0.0,2.06758e-11,8.47746,3.85336,0.77301
450.6,0.0,451.232,0.0,194.849,0.0,194.849,22.4452,48.9292,110.604,0.0,1.18755e-11,8.32014,3.78879,0.761678
450.5,25.0,451.1318,25.0,188.113,0.0,188.113,21.9056,47.3427,106.221,0.0,6.78761e-12,8.16716,3.72582,0.750593
450.4,126.0,451.032,126.0,181.731,0.0,181.731,21.3852,45.8317,102.091,0.0,3.8594e-12,8.01835,3.6644,0.739749
450.3,45.0,450.932,45.0,175.679,0.0,175.679,20.8831,44.3916,98.197,0.0,2.18454e-12,7.87356,3.6045,0.729138
450.2,99.0,450.832,99.0,169.934,0.0,169.934,20.3985,43.0181,94.52,0.0,1.22968e-12,7.73264,3.54604,0.718753
450.1,92.0,450.732,92.0,164.475,0.0,164.475,19.9305,41.707,91.0448,0.0,6.87902e-13,7.59547,3.48899,0.708588
450.0,80.0,450.6318,80.0,159.284,0.0,159.284,19.4783,40.4548,87.7569,0.0,3.82835e-13,7.46192,3.43331,0.698638