File: XPS/LG4X-result/MX-HT-0.5-Ti2p_6.csv
#No of rows lightened (2D detector)1(if not using 2D detector, value is 1 and can be ignored!)
raw_x,raw_y,corrected x,data-bg,sum_components,bg,sum_fit,TiO2,Ti 3+,Ti 2+,Ti-C,Ti-C (2p1/2),Ti 2+(2p1/2),Ti 3+(2p1/2),Ti 4+ (2p1/2)
467.8,6950.0,468.432,117.0,-6631.53,6833.0,201.469,17.3246,14.5874,16.4984,29.2359,45.5839,36.9838,24.611,16.6443
467.7,6833.0,468.332,0.0,-6625.93,6833.0,207.069,17.7106,14.8486,16.7673,29.6754,46.8482,38.1217,25.5306,17.5669
467.6,6937.0,468.2318,104.403,-6619.66,6832.6,212.941,18.1095,15.1168,17.0427,30.1248,48.1651,39.3127,26.5022,18.5674
467.5,6910.0,468.1318,78.1081,-6612.79,6831.89,219.106,18.5221,15.3924,17.325,30.5844,49.5377,40.56,27.5299,19.6547
467.4,6854.0,468.0318,22.4966,-6605.92,6831.5,225.586,18.9489,15.6756,17.6143,31.0547,50.9689,41.8673,28.6179,20.8389
467.3,6895.0,467.932,63.83,-6598.76,6831.17,232.407,19.3906,15.9666,17.9109,31.5359,52.4621,43.2383,29.7711,22.1316
467.2,6890.0,467.832,59.3055,-6591.1,6830.69,239.597,19.848,16.2659,18.2151,32.0284,54.0207,44.6774,30.9947,23.5465
467.1,6890.0,467.7318,59.7654,-6583.05,6830.23,247.186,20.3216,16.5736,18.5271,32.5324,55.6486,46.189,32.2944,25.099
467.0,6934.0,467.6318,104.399,-6574.39,6829.6,255.21,20.8124,16.89,18.8472,33.0485,57.3497,47.7781,33.6768,26.8071
466.9,6918.0,467.5318,89.1468,-6565.14,6828.85,263.708,21.3211,17.2157,19.1756,33.5769,59.1283,49.45,35.1487,28.6921
466.8,6929.0,467.432,100.881,-6555.39,6828.12,272.727,21.8487,17.5508,19.5127,34.1181,60.9891,51.2106,36.7181,30.7785
466.7,6953.0,467.332,125.756,-6544.93,6827.24,282.315,22.396,17.8958,19.8587,34.6725,62.9368,53.0661,38.3935,33.0954
466.6,7043.0,467.2318,217.08,-6533.39,6825.92,292.532,22.9642,18.251,20.2141,35.2405,64.9769,55.0234,40.1848,35.677
466.5,6996.0,467.1318,171.581,-6520.97,6824.42,303.444,23.5542,18.6169,20.579,35.8226,67.1149,57.0901,42.1026,38.5639
466.4,7073.0,467.0318,250.21,-6507.66,6822.79,315.129,24.1671,18.9939,20.9539,36.4191,69.3569,59.2744,44.1589,41.8047
466.3,7020.0,466.932,198.945,-6493.38,6821.06,327.676,24.8043,19.3825,21.3391,37.0307,71.7095,61.5854,46.3671,45.4574
466.2,6978.0,466.832,158.324,-6478.49,6819.68,341.189,25.4669,19.783,21.735,37.6579,74.1795,64.0328,48.7425,49.5918
466.1,7090.0,466.7318,271.986,-6462.22,6818.01,355.792,26.1564,20.1961,22.142,38.301,76.7747,66.6275,51.3018,54.2927
466.0,7070.0,466.6318,254.018,-6444.35,6815.98,371.63,26.8742,20.6223,22.5606,38.9608,79.5031,69.3815,54.0643,59.6628
465.9,7084.0,466.5318,270.041,-6425.09,6813.96,388.874,27.6218,21.062,22.9911,39.6378,82.3734,72.3079,57.0517,65.8278
465.8,7087.0,466.432,275.147,-6404.12,6811.85,407.73,28.401,21.5159,23.4341,40.3325,85.3951,75.4213,60.2883,72.9421
465.7,7168.0,466.332,358.594,-6380.96,6809.41,428.448,29.2135,21.9847,23.8899,41.0457,88.5785,78.7377,63.8021,81.1953
465.6,7368.0,466.2318,562.15,-6354.53,6805.85,451.324,30.0614,22.4689,24.3592,41.7779,91.9347,82.2749,67.6249,90.822
465.5,7286.0,466.1318,484.191,-6325.09,6801.81,476.721,30.9465,22.9692,24.8424,42.5299,95.4755,86.0527,71.7929,102.112
465.4,7198.0,466.0318,399.604,-6293.32,6798.4,505.076,31.8712,23.4864,25.3401,43.3023,99.214,90.0931,76.3479,115.42
465.3,7380.0,465.932,585.408,-6257.68,6794.59,536.915,32.8379,24.0212,25.8529,44.096,103.164,94.4207,81.3376,131.185
465.2,7498.0,465.832,708.405,-6216.73,6789.59,572.868,33.849,24.5744,26.3815,44.9117,107.342,99.0628,86.8174,149.93
465.1,7620.0,465.7318,836.371,-6169.96,6783.63,613.666,34.9075,25.1469,26.9263,45.7502,111.764,104.05,92.8512,172.27
465.0,7630.0,465.6318,852.895,-6116.98,6777.11,660.121,36.0161,25.7396,27.4882,46.6123,116.448,109.417,99.5132,198.886
464.9,7592.0,465.5318,821.361,-6057.58,6770.64,713.061,37.1783,26.3535,28.0679,47.4991,121.415,115.203,106.89,230.454
464.8,7639.0,465.432,874.912,-5990.92,6764.09,773.164,38.3974,26.9895,28.666,48.4113,126.687,121.451,115.083,267.479
464.7,7571.0,465.332,813.432,-5916.93,6757.57,840.643,39.6772,27.6488,29.2834,49.3501,132.287,128.211,124.21,309.976
464.6,7691.0,465.2318,940.204,-5836.07,6750.8,914.723,41.0219,28.3325,29.921,50.3164,138.243,135.539,134.41,356.939
464.5,7793.0,465.1318,1049.89,-5750.17,6743.11,992.94,42.4358,29.0417,30.5796,51.3114,144.584,143.499,145.849,405.639
464.4,7800.0,465.0318,1065.06,-5664.35,6734.94,1070.59,43.9237,29.7779,31.2601,52.3361,151.343,152.164,158.72,451.063
464.3,7896.0,464.932,1169.69,-5585.31,6726.31,1141,45.4909,30.5423,31.9636,53.3918,158.556,161.617,173.253,486.186
464.2,7881.0,464.832,1163.7,-5519.87,6717.3,1197.43,47.1432,31.3364,32.691,54.4797,166.263,171.954,189.721,503.839
464.1,7840.0,464.7318,1131.56,-5472.3,6708.44,1236.14,48.8866,32.1619,33.4435,55.6012,174.511,183.286,208.446,499.802
464.0,7846.0,464.6318,1146.36,-5440.94,6699.64,1258.7,50.7282,33.0202,34.2223,56.7576,183.348,195.738,229.811,475.076
463.9,8036.0,464.5318,1345.99,-5418.57,6690.01,1271.45,52.6752,33.9133,35.0285,57.9504,192.832,209.459,254.266,435.321
463.8,7981.0,464.432,1301.21,-5397.21,6679.79,1282.58,54.7359,34.843,35.8635,59.1812,203.028,224.62,282.335,387.976
463.7,7937.0,464.332,1267.13,-5370.46,6669.87,1299.41,56.9192,35.8113,36.7286,60.4516,214.006,241.42,314.624,339.454
463.6,8006.0,464.2318,1346.22,-5332.67,6659.78,1327.11,59.235,36.8203,37.6254,61.7632,225.85,260.092,351.816,293.908
463.5,8013.0,464.1318,1363.69,-5280.51,6649.31,1368.81,61.6942,37.8725,38.5553,63.118,238.653,280.91,394.649,253.354
463.4,8202.0,464.0318,1563.99,-5211.75,6638.01,1426.26,64.3088,38.9703,39.5201,64.5178,252.522,304.195,443.872,218.352
463.3,8033.0,463.932,1406.47,-5126.12,6626.53,1500.41,67.0921,40.1162,40.5215,65.9646,267.579,330.328,500.15,188.658
463.2,8180.0,463.832,1564.94,-5023.38,6615.06,1591.68,70.0587,41.3133,41.5613,67.4605,283.965,359.757,563.888,163.68
463.1,8345.0,463.7318,1742.71,-4902.31,6602.29,1699.98,73.2251,42.5646,42.6416,69.0079,301.844,393.012,634.959,142.724
463.0,8481.0,463.6318,1892.75,-4763.83,6588.25,1824.41,76.6095,43.8733,43.7645,70.609,321.404,430.722,712.297,125.131
462.9,8603.0,463.5318,2029.9,-4610.22,6573.1,1962.88,80.2321,45.243,44.9321,72.2664,342.866,473.632,793.392,110.317
462.8,8570.0,463.432,2012.52,-4445.86,6557.48,2111.63,84.1156,46.6776,46.1471,73.9827,366.489,522.62,873.809,97.7887
462.7,8738.0,463.332,2196.77,-4276.11,6541.23,2265.11,88.2855,48.1812,47.4118,75.7608,392.574,578.715,947.043,87.1419
462.6,8895.0,463.232,2371.41,-4106.98,6523.59,2416.61,92.7704,49.7583,48.7292,77.6038,421.48,643.118,1005.1,78.0456
462.5,9047.0,463.1318,2542.39,-3944.8,6504.61,2559.81,97.6025,51.4136,50.102,79.5146,453.628,717.196,1040.12,70.2315
462.4,9089.0,463.032,2604.27,-3793.61,6484.73,2691.12,102.818,53.1526,51.5335,81.4968,489.519,802.475,1046.65,63.4827
462.3,9119.0,462.932,2654.58,-3652.85,6464.42,2811.57,108.459,54.9808,53.0271,83.554,529.749,900.573,1023.61,57.6232
462.2,9403.0,462.832,2960.26,-3515.66,6442.74,2927.08,114.571,56.9044,54.5864,85.6898,575.03,1013.07,974.713,52.51
462.1,9534.0,462.732,3114.72,-3372.44,6419.28,3046.83,121.208,58.9301,56.2153,87.9085,626.208,1141.27,907.071,48.0261
462.0,9672.0,462.6318,3277.41,-3214.01,6394.59,3180.59,128.432,61.0653,57.9179,90.2143,684.292,1285.72,828.874,44.076
461.9,9885.0,462.532,3516.65,-3032.38,6368.35,3335.97,136.312,63.318,59.6989,92.6118,750.475,1445.57,747.405,40.5807
461.8,10130.0,462.432,3789.86,-2823.57,6340.14,3516.57,144.928,65.6968,61.563,95.1061,826.159,1617.63,668.016,37.4749
461.7,10153.0,462.332,3842.34,-2590,6310.66,3720.66,154.375,68.2112,63.5154,97.7022,912.959,1795.19,594.009,34.7042
461.6,10180.0,462.232,3899.24,-2340.04,6280.76,3940.73,164.761,70.8718,65.5619,100.406,1012.68,1967.21,527.013,32.2233
461.5,10502.0,462.1318,4252.72,-2085.32,6249.28,4163.96,176.211,73.69,67.7086,103.223,1127.22,2118.4,467.51,29.994
461.4,10433.0,462.032,4216.43,-1842.14,6216.57,4374.43,188.873,76.6784,69.962,106.16,1258.39,2231.1,415.282,27.984
461.3,10531.0,461.932,4347.5,-1626.43,6183.5,4557.07,202.921,79.8508,72.3294,109.224,1407.43,2289.4,369.753,26.1661
461.2,10749.0,461.832,4600.06,-1446.86,6148.94,4702.09,218.56,83.2225,74.8185,112.423,1574.28,2284.07,330.194,24.5168
461.1,11076.0,461.732,4963.99,-1304.81,6112.01,4807.2,236.031,86.8105,77.4378,115.763,1756.31,2215.98,295.855,23.0164
461.0,11038.0,461.6318,4964.33,-1198.08,6073.67,4875.58,255.626,90.6335,80.1964,119.255,1946.43,2095.77,266.025,21.6477
460.9,10891.0,461.532,4855.26,-1125.75,6035.74,4909.99,277.69,94.7122,83.1045,122.906,2131.15,1939.98,240.064,20.3959
460.8,10846.0,461.432,4847.73,-1091.58,5998.27,4906.69,302.641,99.0697,86.1729,126.727,2289.33,1766.1,217.412,19.2483
460.7,10619.0,461.332,4657.44,-1107.96,5961.56,4853.61,330.986,103.732,89.4135,130.729,2394.16,1588.8,197.587,18.1937
460.6,10743.0,461.232,4818.03,-1189.38,5924.97,4735.59,363.342,108.727,92.8395,134.922,2419.96,1418.4,180.178,17.2225
460.5,10471.0,461.1318,4582.34,-1343.59,5888.66,4545.07,400.463,114.088,96.4652,139.32,2352.65,1260.92,164.837,16.3262
460.4,10215.0,461.032,4360.87,-1563.1,5854.13,4291.03,443.279,119.85,100.306,143.937,2197.75,1119.13,151.272,15.4974
460.3,9886.0,460.932,4064.41,-1822.69,5821.59,3998.9,492.938,126.054,104.38,148.785,1979.2,993.576,139.235,14.7296
460.2,9496.0,460.832,3704.41,-2090.03,5791.59,3701.56,550.868,132.746,108.706,153.882,1729.29,883.538,128.516,14.0169
460.1,9216.0,460.732,3452.05,-2335.39,5763.95,3428.56,618.847,139.978,113.304,159.245,1477.24,787.654,118.939,13.3543
460.0,8916.0,460.6318,3177.66,-2538.02,5738.34,3200.32,699.093,147.808,118.199,164.891,1242.92,704.321,110.355,12.7372
459.9,8706.0,460.532,2991.48,-2686.54,5714.52,3027.98,794.363,156.302,123.415,170.843,1036.33,631.931,102.636,12.1615
459.8,8555.0,460.432,2863.09,-2775.7,5691.91,2916.21,908.065,165.538,128.983,177.121,860.223,568.98,95.6738,11.6238
459.7,8551.0,460.332,2881.28,-2803.33,5669.72,2866.39,1044.34,175.602,134.932,183.751,713.143,514.128,89.3759,11.1206
459.6,8500.0,460.232,2852.42,-2768.64,5647.58,2878.94,1208.07,186.593,141.3,190.758,591.705,466.204,83.663,10.6492
459.5,8640.0,460.1318,3015.08,-2670.48,5624.92,2954.44,1404.65,198.628,148.125,198.172,491.989,424.203,78.4669,10.207
459.4,8681.0,460.032,3079.62,-2507.7,5601.38,3093.69,1639.34,211.838,155.453,206.025,410.242,387.271,73.7287,9.79157
459.3,8870.0,459.932,3293.23,-2280.39,5576.77,3296.39,1915.67,226.379,163.333,214.352,343.17,354.684,69.3974,9.40085
459.2,9168.0,459.832,3617.92,-1991.93,5550.08,3558.16,2232.41,242.431,171.823,223.191,288.007,325.829,65.4288,9.03292
459.1,9448.0,459.732,3927.06,-1655.42,5520.94,3865.52,2578.59,260.202,180.984,232.587,242.492,300.192,61.7845,8.68605
459.0,9733.0,459.6318,4243.61,-1299.63,5489.39,4189.76,2927.42,279.941,190.891,242.585,204.798,277.336,58.4306,8.35868
458.9,9891.0,459.532,4435.13,-972.385,5455.87,4483.49,3232.95,301.937,201.624,253.238,173.459,256.89,55.3378,8.04938
458.8,9910.0,459.432,4488.59,-733.998,5421.41,4687.41,3436.91,326.535,213.277,264.605,147.302,238.543,52.4801,7.75684
458.7,9982.0,459.332,4595.67,-634.711,5386.33,4751.61,3490.04,354.143,225.957,276.749,125.388,222.027,49.8346,7.47989
458.6,10063.0,459.232,4712.62,-688.866,5350.38,4661.51,3378.06,385.25,239.786,289.744,106.962,207.115,47.3813,7.21745
458.5,9900.0,459.1318,4585.53,-868.009,5314.47,4446.46,3130.34,420.439,254.906,303.671,91.4165,193.613,45.1021,6.96851
458.4,9466.0,459.032,4185.4,-1118.11,5280.6,4162.48,2802.64,460.414,271.48,318.618,78.2609,181.354,42.9813,6.73218
458.3,9112.0,458.932,3862.49,-1383.84,5249.51,3865.67,2450.46,506.022,289.697,334.69,67.0955,170.194,41.0047,6.50762
458.2,9053.0,458.832,3833.21,-1623.82,5219.79,3595.98,2112.85,558.291,309.777,351.998,57.5947,160.009,39.1597,6.29407
458.1,8733.0,458.732,3541.69,-1816.3,5191.31,3375.02,1810.19,618.464,331.977,370.674,49.4913,150.691,37.435,6.09081
458.0,8393.0,458.6318,3227.83,-1954.01,5165.17,3211.16,1549.21,688.049,356.601,390.864,42.5653,142.147,35.8205,5.89721
457.9,8274.0,458.532,3133.4,-2035.1,5140.6,3105.51,1328.94,768.873,384.007,412.734,36.6345,134.296,34.3071,5.71266
457.8,8215.0,458.432,3098.46,-2060.32,5116.54,3056.22,1144.96,863.133,414.617,436.475,31.5475,127.065,32.8866,5.53661
457.7,8066.0,458.332,2972.91,-2032.08,5093.09,3061,991.831,973.443,448.938,462.302,27.1781,120.393,31.5516,5.36854
457.6,8173.0,458.232,3103.38,-1951.28,5069.62,3118.34,864.299,1102.85,487.574,490.467,23.4204,114.224,30.2956,5.20799
457.5,8304.0,458.1318,3258.95,-1817.13,5045.05,3227.92,757.746,1254.8,531.255,521.255,20.1854,108.509,29.1124,5.05451
457.4,8384.0,458.032,3364.53,-1628.9,5019.47,3390.57,668.302,1432.89,580.865,554.999,17.3979,103.207,27.9966,4.90769
457.3,8573.0,457.932,3580.35,-1384.82,4992.65,3607.83,592.81,1640.47,637.478,592.085,14.9944,98.2787,26.9432,4.76716
457.2,8842.0,457.832,3878.15,-1082.93,4963.85,3880.91,528.72,1879.63,702.411,632.962,12.9207,93.6902,25.9476,4.63256
457.1,8984.0,457.732,4050.78,-724.152,4933.22,4209.07,473.986,2149.59,777.288,678.156,11.1309,89.4115,25.0058,4.50357
457.0,9260.0,457.6318,4359.25,-313.701,4900.75,4587.04,426.968,2444.18,864.112,728.286,9.58578,85.4158,24.114,4.37988
456.9,9655.0,457.532,4789.59,136.544,4865.41,5001.96,386.345,2748.69,965.38,784.085,8.25159,81.6789,23.2687,4.26119
456.8,9879.0,457.432,5051.59,603.543,4827.41,5430.95,351.056,3037.38,1084.2,846.422,7.09952,78.1792,22.4667,4.14726
456.7,10208.0,457.332,5421.04,1055.23,4786.96,5842.19,320.24,3274.42,1224.45,916.331,6.10479,74.8972,21.7052,4.03782
456.6,10603.0,457.232,5859.6,1458.84,4743.4,6202.24,293.195,3421.03,1390.98,995.057,5.24608,71.8156,20.9816,3.93264
456.5,11010.0,457.1318,6313.62,1793.05,4696.38,6489.44,269.348,3448.67,1589.78,1084.09,4.50498,68.9184,20.2933,3.83152
456.4,11447.0,457.032,6801.27,2060.89,4645.73,6706.63,248.227,3351.55,1828.18,1185.25,3.86563,66.1914,19.6381,3.73423
456.3,11719.0,456.932,7127.06,2292.1,4591.94,6884.04,229.442,3149.42,2114.89,1300.7,3.31431,63.6216,19.014,3.64059
456.2,12050.0,456.832,7514.6,2534.48,4535.4,7069.87,212.669,2878.42,2459.67,1433.11,2.83915,61.1973,18.4189,3.55043
456.1,12470.0,456.732,7994.5,2839.74,4475.5,7315.24,197.635,2576.97,2872.31,1585.68,2.42987,58.9078,17.8513,3.46356
456.0,12678.0,456.6318,8265.29,3248.85,4412.71,7661.55,184.114,2275.64,3359.99,1762.3,2.07759,56.7434,17.3093,3.37984
455.9,13115.0,456.532,8768.07,3785.12,4346.93,8132.05,171.911,1993.75,3922.17,1967.65,1.7746,54.6951,16.7915,3.29911
455.8,13541.0,456.432,9263.71,4447.34,4277.29,8724.63,160.864,1740.81,4541.84,2207.33,1.5142,52.755,16.2965,3.22123
455.7,13753.0,456.332,9548.36,5199.18,4204.64,9403.82,150.834,1519.61,5174.29,2487.92,1.2906,50.9155,15.8229,3.14607
455.6,14115.0,456.232,9985.8,5967.03,4129.2,10096.2,141.701,1329.02,5739.7,2817.09,1.09879,49.1699,15.3696,3.07351
455.5,14423.0,456.1318,10372.4,6651.49,4050.57,10702.1,133.363,1166.12,6132.7,3203.5,0.934393,47.512,14.9354,3.00342
455.4,14543.0,456.032,10573.3,7163.1,3969.68,11132.8,125.73,1027.32,6259.03,3656.52,0.793645,45.9359,14.5192,2.9357
455.3,15078.0,455.932,11192.4,7474.32,3885.63,11359.9,118.728,909.085,6084.52,4185.51,0.673272,44.4365,14.1202,2.87024
455.2,15381.0,455.832,11583.3,7637.14,3797.67,11434.8,112.288,808.175,5655.87,4798.36,0.570439,43.0089,13.7373,2.80694
455.1,15435.0,455.732,11727.4,7749.79,3707.64,11457.4,106.354,721.786,5072.61,5498.44,0.482691,41.6486,13.3697,2.74571
455.0,15559.0,455.6318,11942.8,7905.45,3616.23,11521.7,100.873,647.546,4437.73,6279.06,0.407904,40.3515,13.0165,2.68646
454.9,15499.0,455.532,11975.1,8149.31,3523.86,11673.2,95.8013,583.472,3825.31,7113.83,0.344244,39.1136,12.6772,2.6291
454.8,15217.0,455.432,11784.9,8456.7,3432.1,11888.8,91.0995,527.925,3274.74,7941.88,0.290123,37.9316,12.3509,2.57356
454.7,15149.0,455.332,11808,8727.52,3340.98,12068.5,86.7328,479.551,2799.62,8650.99,0.244171,36.802,12.037,2.51975
454.6,14754.0,455.232,11503,8789.73,3250.96,12040.7,82.6702,437.233,2398.72,9071.93,0.205208,35.7219,11.7348,2.46761
454.5,14455.0,455.1318,11292.1,8441.82,3162.92,11604.7,78.8845,400.052,2064.16,9012.93,0.172215,34.6885,11.4439,2.41708
454.4,13801.0,455.032,10723.1,7553.21,3077.9,10631.1,75.3511,367.243,1786.02,8355.12,0.144317,33.699,11.1636,2.36807
454.3,12877.0,454.932,9878.66,6173.77,2998.34,9172.11,72.0483,338.175,1554.67,7161.13,0.12076,32.7511,10.8934,2.32054
454.2,11183.0,454.832,8254.69,4538.34,2928.31,7466.65,68.9566,312.319,1361.63,5678.9,0.100898,31.8424,10.6329,2.27442
454.1,8969.0,454.732,6096.11,2933.02,2872.89,5805.91,66.0585,289.234,1199.79,4207.16,0.0841753,30.9709,10.3816,2.22967
454.0,6979.0,454.6318,4145.67,1556.49,2833.33,4389.82,63.3383,268.55,1063.36,2952.05,0.070117,30.1345,10.1391,2.18621
453.9,5409.0,454.532,2601.72,480.116,2807.28,3287.39,60.7817,249.954,947.66,1987.56,0.0583165,29.3314,9.90495,2.14402
453.8,4538.0,454.432,1747.52,-312.826,2790.48,2477.65,58.376,233.18,848.956,1296.75,0.0484263,28.5598,9.67879,2.10303
453.7,4077.0,454.332,1298.28,-875.848,2778.72,1902.87,56.1097,218.005,764.247,825.124,0.0401501,27.8182,9.46027,2.06321
453.6,3629.0,454.232,858.614,-1268.71,2770.39,1501.68,53.9721,204.234,691.128,513.933,0.0332354,27.1049,9.24905,2.0245
453.5,3429.0,454.1318,664.496,-1541.8,2764.5,1222.71,51.9538,191.705,627.661,313.909,0.0274674,26.4187,9.0448,1.98688
453.4,3386.0,454.032,626.482,-1732.2,2759.52,1027.32,50.046,180.273,572.28,188.143,0.0226637,25.7581,8.84722,1.95029
453.3,3255.0,453.932,499.832,-1867.04,2755.17,888.129,48.241,169.818,523.711,110.647,0.0186696,25.1219,8.65603,1.9147
453.2,3237.0,453.832,485.638,-1964.99,2751.36,786.376,46.5315,160.233,480.913,63.8227,0.0153541,24.5088,8.47096,1.88007
453.1,3142.0,453.732,394.035,-2038.44,2747.97,709.521,44.9109,151.426,443.031,36.085,0.0126065,23.9179,8.29174,1.84638
453.0,3011.0,453.6318,265.582,-2096.1,2745.42,649.32,43.3732,143.315,409.357,19.9846,0.0103333,23.348,8.11814,1.81358
452.9,3076.0,453.532,332.893,-2142.69,2743.11,600.419,41.9128,135.83,379.305,10.8337,0.00845576,22.7982,7.94991,1.78164
452.8,3039.0,453.432,298.331,-2181.3,2740.67,559.373,40.5246,128.909,352.383,5.74475,0.00690768,22.2675,7.78685,1.75055
452.7,3028.0,453.332,289.602,-2214.43,2738.4,523.969,39.2041,122.498,328.179,2.97784,0.00563342,21.7551,7.62875,1.72025
452.6,3016.0,453.232,279.801,-2243.42,2736.2,492.78,37.9468,116.549,306.345,1.50802,0.00458635,21.2601,7.4754,1.69074
452.5,2913.0,453.1318,178.571,-2269.56,2734.43,464.874,36.7489,111.017,286.588,0.745673,0.00372748,20.7817,7.32661,1.66198
452.4,2932.0,453.032,199.029,-2293.34,2732.97,439.627,35.6066,105.867,268.655,0.359839,0.0030242,20.3193,7.18222,1.63395
452.3,2938.0,452.932,206.596,-2314.8,2731.4,416.604,34.5165,101.063,252.332,0.169389,0.00244934,19.8721,7.04204,1.60661
452.2,2911.0,452.832,181.093,-2334.42,2729.91,395.491,33.4756,96.5764,237.434,0.0777503,0.00198028,19.4394,6.90592,1.57996
452.1,2909.0,452.732,180.489,-2352.46,2728.51,376.047,32.481,92.3791,223.802,0.0347851,0.00159824,19.0207,6.7737,1.55397
452.0,2859.0,452.6318,131.695,-2369.22,2727.3,358.081,31.5299,88.4473,211.298,0.0151638,0.00128762,18.6154,6.64523,1.52861
451.9,2879.0,452.532,152.794,-2384.77,2726.21,341.437,30.6199,84.7593,199.803,0.00643891,0.00103553,18.2228,6.52037,1.50386
451.8,2796.0,452.432,70.6568,-2399.36,2725.34,325.98,29.7485,81.2954,189.212,0.00266246,0.000831307,17.8425,6.399,1.47971
451.7,2837.0,452.332,112.364,-2413.04,2724.64,311.597,28.9138,78.0381,179.433,0.00107178,0.000666167,17.4739,6.28097,1.45614
451.6,2899.0,452.232,175.475,-2425.34,2723.52,298.188,28.1136,74.9712,170.386,0.000419931,0.000532873,17.1166,6.16618,1.43313
451.5,2903.0,452.1318,180.851,-2436.49,2722.15,285.663,27.3461,72.0805,162.001,0.000160106,0.000425481,16.7702,6.05449,1.41065
451.4,2770.0,452.032,48.738,-2447.32,2721.26,273.946,26.6095,69.3526,154.215,5.93888e-05,0.000339116,16.4341,5.94581,1.3887
451.3,2867.0,451.932,146.492,-2457.54,2720.51,262.966,25.9022,66.7758,146.973,2.14285e-05,0.00026979,16.108,5.84002,1.36726
451.2,2824.0,451.832,104.461,-2466.88,2719.54,252.662,25.2227,64.3391,140.225,7.51966e-06,0.000214245,15.7915,5.73703,1.34631
451.1,2771.0,451.732,52.0656,-2475.96,2718.93,242.978,24.5695,62.0325,133.929,2.56599e-06,0.000169824,15.4842,5.63673,1.32584
451.0,2787.0,451.6318,68.5313,-2484.61,2718.47,233.863,23.9413,59.8472,128.044,8.51332e-07,0.000134366,15.1857,5.53904,1.30583
450.9,2882.0,451.532,164.431,-2492.29,2717.57,225.274,23.3368,57.7746,122.537,2.74583e-07,0.000106116,14.8958,5.44385,1.28627
450.8,2807.0,451.432,90.4152,-2499.42,2716.58,217.17,22.7549,55.8073,117.375,8.60851e-08,8.36498e-05,14.6141,5.3511,1.26715
450.7,2777.0,451.332,61.0,-2506.49,2716.0,209.513,22.1945,53.9383,112.531,2.62308e-08,6.58179e-05,14.3403,5.26069,1.24845
450.6,2716.0,451.232,0.0,-2513.73,2716.0,202.271,21.6544,52.1612,107.978,7.76743e-09,5.16909e-05,14.0742,5.17256,1.23016
450.5,2741.0,451.1318,25.0,-2520.59,2716.0,195.413,21.1338,50.4701,103.695,2.23503e-09,4.05204e-05,13.8153,5.08661,1.21227
450.4,2842.0,451.032,126.0,-2527.09,2716.0,188.913,20.6317,48.8595,99.6609,6.24875e-10,3.17044e-05,13.5635,5.00279,1.19476
450.3,2761.0,450.932,45.0,-2533.25,2716.0,182.745,20.1473,47.3244,95.8563,1.6973e-10,2.476e-05,13.3185,4.92101,1.17764
450.2,2815.0,450.832,99.0,-2539.11,2716.0,176.887,19.6796,45.8603,92.2644,4.47872e-11,1.93003e-05,13.0801,4.84123,1.16087
450.1,2808.0,450.732,92.0,-2544.68,2716.0,171.316,19.2281,44.4628,88.8697,1.14822e-11,1.50161e-05,12.848,4.76336,1.14447
450.0,2796.0,450.6318,80.0,-2549.98,2716.0,166.016,18.7919,43.1279,85.6582,2.85617e-12,1.16608e-05,12.622,4.68736,1.1284