File: XPS/LG4X-result/MX-HT-0.5-Ti2p_2.csv
#No of rows lightened (2D detector)1(if not using 2D detector, value is 1 and can be ignored!)
raw_x,raw_y,corrected x,data-bg,sum_components,bg,sum_fit,C_1,C_2,C_3,C_4,C_5,C_6,C_7,C_8
470.0,366.0,470.6318,366.0,144.629,0.0,144.629,12.1199,10.7231,10.7469,22.0938,68.6187,8.73552,7.97819,3.61318
469.9,458.0,470.5318,458.0,147.438,0.0,147.438,12.3369,10.8836,10.8954,22.3805,70.0744,8.937,8.19077,3.73917
469.8,322.0,470.432,322.0,150.333,0.0,150.333,12.5598,11.0477,11.0471,22.6728,71.5767,9.1455,8.41193,3.87184
469.7,415.0,470.332,415.0,153.32,0.0,153.32,12.7888,11.2155,11.2019,22.9709,73.1277,9.36136,8.64214,4.01168
469.6,354.0,470.2318,354.0,156.402,0.0,156.402,13.0241,11.3872,11.36,23.275,74.7294,9.58493,8.88189,4.15921
469.5,329.0,470.1318,329.0,159.583,0.0,159.583,13.2659,11.5629,11.5215,23.585,76.3841,9.81658,9.13171,4.31499
469.4,363.0,470.0318,363.0,162.868,0.0,162.868,13.5145,11.7426,11.6865,23.9014,78.0941,10.0567,9.39217,4.47966
469.3,299.0,469.932,299.0,166.261,0.0,166.261,13.7702,11.9266,11.855,24.2241,79.862,10.3057,9.66389,4.6539
469.2,316.0,469.832,316.0,169.769,0.0,169.769,14.0332,12.115,12.0272,24.5534,81.6903,10.564,9.94752,4.83846
469.1,313.0,469.7318,313.0,173.396,0.0,173.396,14.3038,12.3078,12.2031,24.8894,83.5818,10.8322,10.2438,5.03418
469.0,213.0,469.6318,213.0,177.148,0.0,177.148,14.5822,12.5052,12.383,25.2324,85.5395,11.1106,10.5534,5.24196
468.9,206.0,469.5318,206.0,181.032,0.0,181.032,14.8689,12.7075,12.5668,25.5826,87.5664,11.3999,10.8771,5.46281
468.8,140.0,469.432,140.0,185.054,0.0,185.054,15.1641,12.9147,12.7548,25.9401,89.6659,11.7005,11.216,5.69785
468.7,217.0,469.332,217.0,189.221,0.0,189.221,15.4682,13.127,12.947,26.3051,91.8415,12.0132,11.5708,5.94832
468.6,211.0,469.2318,211.0,193.541,0.0,193.541,15.7814,13.3445,13.1436,26.6778,94.0968,12.3385,11.9427,6.21558
468.5,212.0,469.1318,212.0,198.022,0.0,198.022,16.1043,13.5675,13.3447,27.0586,96.4357,12.6772,12.3326,6.50116
468.4,223.0,469.0318,223.0,202.672,0.0,202.672,16.4372,13.7961,13.5505,27.4475,98.8624,13.0299,12.7419,6.80676
468.3,146.0,468.932,146.0,207.502,0.0,207.502,16.7805,14.0306,13.761,27.8449,101.381,13.3975,13.1717,7.1343
468.2,195.0,468.832,195.0,212.521,0.0,212.521,17.1347,14.2711,13.9765,28.251,103.997,13.7807,13.6235,7.4859
468.1,161.0,468.7318,161.0,217.74,0.0,217.74,17.5001,14.5178,14.1971,28.6661,106.715,14.1806,14.0989,7.86397
468.0,107.0,468.6318,107.0,223.171,0.0,223.171,17.8774,14.7709,14.4229,29.0903,109.541,14.5981,14.5993,8.27121
467.9,87.0,468.5318,87.0,228.826,0.0,228.826,18.267,15.0307,14.6542,29.524,112.479,15.0341,15.1267,8.71067
467.8,117.0,468.432,117.0,234.72,0.0,234.72,18.6694,15.2974,14.8911,29.9675,115.536,15.4899,15.683,9.18582
467.7,0.0,468.332,0.0,240.868,0.0,240.868,19.0852,15.5713,15.1337,30.421,118.719,15.9666,16.2703,9.70061
467.6,104.403,468.2318,104.403,247.285,0.0,247.285,19.5151,15.8526,15.3824,30.885,122.034,16.4656,16.891,10.2595
467.5,78.1081,468.1318,78.1081,253.991,0.0,253.991,19.9596,16.1415,15.6372,31.3596,125.49,16.9881,17.5475,10.8677
467.4,22.4966,468.0318,22.4966,261.004,0.0,261.004,20.4195,16.4385,15.8984,31.8452,129.092,17.5358,18.2428,11.531
467.3,63.83,467.932,63.83,268.345,0.0,268.345,20.8954,16.7436,16.1661,32.3422,132.852,18.1102,18.9798,12.2562
467.2,59.3055,467.832,59.3055,276.04,0.0,276.04,21.3881,17.0574,16.4407,32.8509,136.776,18.7131,19.762,13.0513
467.1,59.7654,467.7318,59.7654,284.113,0.0,284.113,21.8984,17.38,16.7224,33.3716,140.876,19.3464,20.5931,13.9254
467.0,104.399,467.6318,104.399,292.595,0.0,292.595,22.4272,17.7119,17.0113,33.9049,145.161,20.0122,21.4772,14.8891
466.9,89.1468,467.5318,89.1468,301.518,0.0,301.518,22.9753,18.0533,17.3078,34.4511,149.644,20.7127,22.4188,15.955
466.8,100.881,467.432,100.881,310.917,0.0,310.917,23.5437,18.4047,17.6121,35.0105,154.335,21.4504,23.4231,17.1377
466.7,125.756,467.332,125.756,320.834,0.0,320.834,24.1334,18.7664,17.9244,35.5837,159.248,22.2279,24.4955,18.4547
466.6,217.08,467.2318,217.08,331.316,0.0,331.316,24.7455,19.1389,18.2452,36.171,164.398,23.048,25.6424,19.9267
466.5,171.581,467.1318,171.581,342.414,0.0,342.414,25.3811,19.5225,18.5746,36.773,169.799,23.914,26.8707,21.5785
466.4,250.21,467.0318,250.21,354.188,0.0,354.188,26.0414,19.9178,18.9131,37.3901,175.468,24.8293,28.1882,23.44
466.3,198.945,466.932,198.945,366.708,0.0,366.708,26.7279,20.3252,19.2608,38.0229,181.423,25.7977,29.6036,25.5473
466.2,158.324,466.832,158.324,380.054,0.0,380.054,27.4417,20.7451,19.6182,38.6719,187.683,26.8233,31.1267,27.9444
466.1,271.986,466.7318,271.986,394.319,0.0,394.319,28.1845,21.1783,19.9857,39.3377,194.268,27.9107,32.7685,30.6852
466.0,254.018,466.6318,254.018,409.613,0.0,409.613,28.9577,21.6251,20.3635,40.0207,201.203,29.0648,34.5415,33.8366
465.9,270.041,466.5318,270.041,426.066,0.0,426.066,29.7631,22.0861,20.7522,40.7217,208.51,30.2913,36.4597,37.4813
465.8,275.147,466.432,275.147,443.835,0.0,443.835,30.6025,22.562,21.1521,41.4413,216.218,31.5962,38.5392,41.7233
465.7,358.594,466.332,358.594,463.108,0.0,463.108,31.4778,23.0535,21.5636,42.18,224.355,32.9862,40.7981,46.6937
465.6,562.15,466.2318,562.15,484.117,0.0,484.117,32.3911,23.5611,21.9873,42.9387,232.953,34.4688,43.2572,52.5592
465.5,484.191,466.1318,484.191,507.145,0.0,507.145,33.3446,24.0856,22.4235,43.7181,242.048,36.0524,45.9403,59.5327
465.4,399.604,466.0318,399.604,532.545,0.0,532.545,34.3406,24.6279,22.8729,44.5188,251.676,37.7461,48.8748,67.8883
465.3,585.408,465.932,585.408,560.759,0.0,560.759,35.3819,25.1886,23.3358,45.3417,261.88,39.5602,52.0921,77.9789
465.2,708.405,465.832,708.405,592.339,0.0,592.339,36.471,25.7686,23.813,46.1877,272.704,41.5063,55.6286,90.2596
465.1,836.371,465.7318,836.371,627.978,0.0,627.978,37.6111,26.3688,24.3049,47.0575,284.2,43.5973,59.5267,105.312
465.0,852.895,465.6318,852.895,668.527,0.0,668.527,38.8052,26.9902,24.8122,47.952,296.42,45.8477,63.8354,123.864
464.9,821.361,465.5318,821.361,715.002,0.0,715.002,40.057,27.6337,25.3355,48.8724,309.426,48.2737,68.6124,146.791
464.8,874.912,465.432,874.912,768.514,0.0,768.514,41.37,28.3005,25.8755,49.8194,323.283,50.8938,73.9251,175.047
464.7,813.432,465.332,813.432,830.063,0.0,830.063,42.7484,28.9917,26.433,50.7942,338.062,53.7288,79.8529,209.452
464.6,940.204,465.2318,940.204,900.017,0.0,900.017,44.1966,29.7084,27.0086,51.7979,353.844,56.8023,86.4894,250.17
464.5,1049.89,465.1318,1049.89,977.136,0.0,977.136,45.7194,30.4519,27.6032,52.8315,370.715,60.1412,93.9457,295.728
464.4,1065.06,465.0318,1065.06,1057.21,0.0,1057.21,47.3218,31.2236,28.2177,53.8965,388.771,63.7762,102.354,341.65
464.3,1169.69,464.932,1169.69,1132.3,0.0,1132.3,49.0096,32.025,28.8528,54.9939,408.118,67.7422,111.871,379.687
464.2,1163.7,464.832,1163.7,1192.63,0.0,1192.63,50.7889,32.8575,29.5096,56.1251,428.873,72.0797,122.685,399.71
464.1,1131.56,464.7318,1131.56,1231.96,0.0,1231.96,52.6663,33.7227,30.1891,57.2915,451.162,76.8349,135.021,395.075
464.0,1146.36,464.6318,1146.36,1252.4,0.0,1252.4,54.6493,34.6225,30.8922,58.4947,475.127,82.0614,149.146,367.403
463.9,1345.99,464.5318,1345.99,1263.12,0.0,1263.12,56.7459,35.5587,31.6202,59.7361,500.923,87.8213,165.38,325.336
463.8,1301.21,464.432,1301.21,1274.69,0.0,1274.69,58.9647,36.5332,32.3741,61.0174,528.721,94.1866,184.103,278.787
463.7,1267.13,464.332,1267.13,1294.73,0.0,1294.73,61.3155,37.5482,33.1553,62.3403,558.708,101.241,205.758,234.661
463.6,1346.22,464.2318,1346.22,1327.31,0.0,1327.31,63.8088,38.6059,33.9651,63.7067,591.094,109.084,230.859,196.183
463.5,1363.69,464.1318,1363.69,1374.09,0.0,1374.09,66.4565,39.7088,34.8048,65.1184,626.105,117.831,259.978,164.086
463.4,1563.99,464.0318,1563.99,1435.6,0.0,1435.6,69.2713,40.8594,35.676,66.5776,663.994,127.617,293.724,137.879
463.3,1406.47,463.932,1406.47,1511.97,0.0,1511.97,72.2675,42.0606,36.5802,68.0862,705.037,138.602,332.681,116.653
463.2,1564.94,463.832,1564.94,1603.22,0.0,1603.22,75.461,43.3153,37.5192,69.6467,749.542,150.978,377.293,99.4693
463.1,1742.71,463.7318,1742.71,1709.23,0.0,1709.23,78.8693,44.6267,38.4947,71.2613,797.842,164.968,427.664,85.5023
463.0,1892.75,463.6318,1892.75,1829.42,0.0,1829.42,82.512,45.9984,39.5087,72.9327,850.309,180.839,483.241,74.0789
462.9,2029.9,463.5318,2029.9,1962.38,0.0,1962.38,86.4109,47.434,40.5632,74.6635,907.347,198.907,542.393,64.6665
462.8,2012.52,463.432,2012.52,2105.4,0.0,2105.4,90.5903,48.9375,41.6604,76.4566,969.402,219.547,601.954,56.8503
462.7,2196.77,463.332,2196.77,2254.17,0.0,2254.17,95.0776,50.5133,42.8025,78.3149,1036.96,243.196,656.996,50.3082
462.6,2371.41,463.232,2371.41,2403.19,0.0,2403.19,99.9035,52.1661,43.9922,80.2417,1110.54,270.368,701.187,44.7905
462.5,2542.39,463.1318,2542.39,2547.04,0.0,2547.04,105.103,53.9009,45.2321,82.2404,1190.73,301.649,728.081,40.1025
462.4,2604.27,463.032,2604.27,2682.29,0.0,2682.29,110.714,55.7232,46.525,84.3146,1278.12,337.695,733.113,36.0915
462.3,2654.58,462.932,2654.58,2809.33,0.0,2809.33,116.782,57.6389,47.8739,86.4681,1373.34,379.208,715.376,32.6371
462.2,2960.26,462.832,2960.26,2932.57,0.0,2932.57,123.356,59.6547,49.2823,88.705,1477.06,426.876,677.995,29.6439
462.1,3114.72,462.732,3114.72,3059.13,0.0,3059.13,130.495,61.7774,50.7535,91.0298,1589.9,481.276,626.858,27.0351
462.0,3277.41,462.6318,3277.41,3196.46,0.0,3196.46,138.262,64.0147,52.2914,93.4469,1712.46,542.677,568.561,24.7492
461.9,3516.65,462.532,3516.65,3350.38,0.0,3350.38,146.735,66.375,53.9,95.9615,1845.17,610.758,508.738,22.736
461.8,3789.86,462.432,3789.86,3523.77,0.0,3523.77,155.999,68.8673,55.5838,98.5787,1988.28,684.183,451.321,20.9547
461.7,3842.34,462.332,3842.34,3716,0.0,3716,166.153,71.5018,57.3474,101.304,2141.63,760.124,398.56,19.3715
461.6,3899.24,462.232,3899.24,3922.66,0.0,3922.66,177.314,74.2892,59.1961,104.144,2304.48,833.858,351.42,17.9585
461.5,4252.72,462.1318,4252.72,4135.81,0.0,4135.81,189.617,77.2416,61.1353,107.105,2475.19,898.791,310.037,16.6926
461.4,4216.43,462.032,4216.43,4344.72,0.0,4344.72,203.22,80.3721,63.171,110.194,2650.85,947.277,274.086,15.5543
461.3,4347.5,461.932,4347.5,4537.49,0.0,4537.49,218.308,83.6953,65.3098,113.418,2826.82,972.384,243.025,14.5272
461.2,4600.06,461.832,4600.06,4702.9,0.0,4702.9,235.099,87.2271,67.5585,116.785,2996.3,970.087,216.246,13.5975
461.1,4963.99,461.732,4963.99,4831.72,0.0,4831.72,253.852,90.9852,69.925,120.304,3149.97,940.768,193.155,12.7533
461.0,4964.33,461.6318,4964.33,4916.57,0.0,4916.57,274.878,94.9892,72.4175,123.984,3276.04,889.064,173.213,11.9846
460.9,4855.26,461.532,4855.26,4951.05,0.0,4951.05,298.544,99.2608,75.0451,127.835,3360.96,822.174,155.944,11.2827
460.8,4847.73,461.432,4847.73,4929.17,0.0,4929.17,325.296,103.824,77.8177,131.868,3391.11,747.671,140.942,10.6402
460.7,4657.44,461.332,4657.44,4846.38,0.0,4846.38,355.673,108.706,80.7461,136.095,3355.38,671.872,127.862,10.0506
460.6,4818.03,461.232,4818.03,4701.93,0.0,4701.93,390.328,113.936,83.8422,140.527,3248.2,599.175,116.414,9.50837
460.5,4582.34,461.1318,4582.34,4501.29,0.0,4501.29,430.063,119.549,87.1188,145.179,3071.88,532.131,106.357,9.0085
460.4,4360.87,461.032,4360.87,4257.11,0.0,4257.11,475.86,125.582,90.5904,150.065,2837.1,471.876,97.486,8.54677
460.3,4064.41,460.932,4064.41,3987.81,0.0,3987.81,528.934,132.076,94.2725,155.201,2560.97,418.61,89.6323,8.11941
460.2,3704.41,460.832,3704.41,3714.52,0.0,3714.52,590.787,139.081,98.1824,160.605,2263.5,371.995,82.6532,7.72312
460.1,3452.05,460.732,3452.05,3457.52,0.0,3457.52,663.288,146.649,102.339,166.294,1963.74,331.428,76.4289,7.35499
460.0,3177.66,460.6318,3177.66,3233.72,0.0,3233.72,748.758,154.843,106.764,172.291,1676.98,296.211,70.8585,7.01241
459.9,2991.48,460.532,2991.48,3055.66,0.0,3055.66,850.071,163.731,111.48,178.617,1413.57,265.647,65.8569,6.69309
459.8,2863.09,460.432,2863.09,2931.88,0.0,2931.88,970.759,173.393,116.514,185.296,1179.08,239.091,61.3516,6.39498
459.7,2881.28,460.332,2881.28,2867.93,0.0,2867.93,1115.08,183.92,121.894,192.356,975.307,215.968,57.281,6.11626
459.6,2852.42,460.232,2852.42,2867.57,0.0,2867.57,1288.02,195.416,127.652,199.825,801.432,195.778,53.5924,5.85528
459.5,3015.08,460.1318,3015.08,2933.6,0.0,2933.6,1494.99,208,133.825,207.737,655.099,178.094,50.2407,5.61058
459.4,3079.62,460.032,3079.62,3067.86,0.0,3067.86,1741.14,221.811,140.453,216.125,533.214,162.552,47.1871,5.38084
459.3,3293.23,459.932,3293.23,3270.16,0.0,3270.16,2029.65,237.01,147.582,225.03,432.483,148.844,44.398,5.16487
459.2,3617.92,459.832,3617.92,3535.4,0.0,3535.4,2358.61,253.784,155.262,234.495,349.726,136.711,41.8443,4.96159
459.1,3927.06,459.732,3927.06,3848.78,0.0,3848.78,2716.06,272.35,163.552,244.566,282.049,125.934,39.5009,4.77003
459.0,4243.61,459.6318,4243.61,4179.98,0.0,4179.98,3074.03,292.966,172.517,255.297,226.905,116.329,37.3456,4.58932
458.9,4435.13,459.532,4435.13,4480.32,0.0,4480.32,3385.79,315.932,182.231,266.746,182.11,107.739,35.3591,4.41865
458.8,4488.59,459.432,4488.59,4689.97,0.0,4689.97,3592.97,341.605,192.78,278.979,145.815,100.033,33.5246,4.25729
458.7,4595.67,459.332,4595.67,4759.06,0.0,4759.06,3646.81,370.409,204.261,292.068,116.478,93.0978,31.8273,4.10458
458.6,4712.62,459.232,4712.62,4672.86,0.0,4672.86,3533.26,402.847,216.785,306.095,92.8188,86.8372,30.2538,3.95992
458.5,4585.53,459.1318,4585.53,4460,0.0,4460,3281.28,439.525,230.48,321.15,73.78,81.1695,28.7927,3.82275
458.4,4185.4,459.032,4185.4,4175.88,0.0,4175.88,2946.23,481.166,245.496,337.336,58.494,76.0242,27.4337,3.69256
458.3,3862.49,458.932,3862.49,3876.76,0.0,3876.76,2584.01,528.645,262.005,354.769,46.2495,71.341,26.1675,3.56889
458.2,3833.21,458.832,3833.21,3603.43,0.0,3603.43,2234.66,583.015,280.207,373.579,36.4649,67.0675,24.986,3.45132
458.1,3541.69,458.732,3541.69,3378.54,0.0,3378.54,1919.69,645.554,300.338,393.914,28.6659,63.1583,23.8819,3.33944
458.0,3227.83,458.6318,3227.83,3211.27,0.0,3211.27,1646.73,717.803,322.675,415.94,22.4662,59.5742,22.8487,3.23291
457.9,3133.4,458.532,3133.4,3103.23,0.0,3103.23,1415.37,801.623,347.544,439.85,17.5516,56.2809,21.8804,3.13138
457.8,3098.46,458.432,3098.46,3052.78,0.0,3052.78,1221.42,899.246,375.333,465.862,13.6671,53.2482,20.9718,3.03454
457.7,2972.91,458.332,2972.91,3057.68,0.0,3057.68,1059.51,1013.31,406.506,494.226,10.6063,50.45,20.1181,2.94212
457.6,3103.38,458.232,3103.38,3116.3,0.0,3116.3,924.333,1146.89,441.618,525.231,8.20226,47.8631,19.3151,2.85385
457.5,3258.95,458.1318,3258.95,3228.19,0.0,3228.19,811.151,1303.38,481.339,559.209,6.32037,45.4671,18.5588,2.76948
457.4,3364.53,458.032,3364.53,3393.98,0.0,3393.98,715.977,1486.34,526.481,596.545,4.85231,43.2439,17.8457,2.68879
457.3,3580.35,457.932,3580.35,3614.89,0.0,3614.89,635.53,1698.96,578.038,637.685,3.71119,41.1776,17.1727,2.61157
457.2,3878.15,457.832,3878.15,3891.78,0.0,3891.78,567.147,1943.1,637.227,683.149,2.82747,39.254,16.5367,2.53763
457.1,4050.78,457.732,4050.78,4223.4,0.0,4223.4,508.685,2217.62,705.549,733.544,2.1457,37.4603,15.9351,2.46677
457.0,4359.25,457.6318,4359.25,4603.93,0.0,4603.93,458.417,2515.9,784.869,789.579,1.62178,35.7854,15.3656,2.39883
456.9,4789.59,457.532,4789.59,5019.96,0.0,5019.96,414.954,2822.81,877.514,852.085,1.22076,34.219,14.8258,2.33366
456.8,5051.59,457.432,5051.59,5448.35,0.0,5448.35,377.172,3112.49,986.396,922.038,0.915086,32.7521,14.3139,2.2711
456.7,5421.04,457.332,5421.04,5857.41,0.0,5857.41,344.158,3349.39,1115.17,1000.59,0.683049,31.3765,13.8278,2.21102
456.6,5859.6,457.232,5859.6,6214.29,0.0,6214.29,315.17,3495.5,1268.42,1089.09,0.507662,30.085,13.3659,2.15329
456.5,6313.62,457.1318,6313.62,6497.88,0.0,6497.88,289.597,3523,1451.87,1189.15,0.375668,28.8708,12.9267,2.09779
456.4,6801.27,457.032,6801.27,6711.02,0.0,6711.02,266.94,3426.29,1672.59,1302.65,0.276768,27.7279,12.5086,2.0444
456.3,7127.06,456.932,7127.06,6883.23,0.0,6883.23,246.78,3224.57,1939.08,1431.84,0.202995,26.651,12.1104,1.99302
456.2,7514.6,456.832,7514.6,7061.84,0.0,7061.84,228.774,2953.15,2261.09,1579.38,0.148215,25.6351,11.7308,1.94355
456.1,7994.5,456.732,7994.5,7297.72,0.0,7297.72,212.631,2649.91,2648.68,1748.45,0.107725,24.6757,11.3687,1.8959
456.0,8265.29,456.6318,8265.29,7632.97,0.0,7632.97,198.107,2345.41,3109.91,1942.83,0.0779353,23.7687,11.023,1.84997
455.9,8768.07,456.532,8768.07,8092.68,0.0,8092.68,184.998,2059.29,3645.87,2167.06,0.0561214,22.9104,10.6927,1.80569
455.8,9263.71,456.432,9263.71,8677.48,0.0,8677.48,173.127,1801.51,4242,2426.57,0.0402237,22.0975,10.3771,1.76298
455.7,9548.36,456.332,9548.36,9354.91,0.0,9354.91,162.347,1575.24,4856.31,2727.86,0.028693,21.3268,10.0751,1.72177
455.6,9985.8,456.232,9985.8,10053.6,0.0,10053.6,152.529,1379.69,5410.62,3078.67,0.0203702,20.5954,9.78605,1.68198
455.5,10372.4,456.1318,10372.4,10673.6,0.0,10673.6,143.564,1212.09,5798.77,3488.11,0.0143921,19.9007,9.50922,1.64356
455.4,10573.3,456.032,10573.3,11125.1,0.0,11125.1,135.358,1068.96,5924.05,3966.59,0.0101192,19.2404,9.24393,1.60643
455.3,11192.4,455.932,11192.4,11380.1,0.0,11380.1,127.827,946.787,5751.05,4525.25,0.00708028,18.6122,8.98954,1.57055
455.2,11583.3,455.832,11583.3,11494.1,0.0,11494.1,120.901,842.344,5328.12,5174.41,0.0049297,18.0141,8.74547,1.53585
455.1,11727.4,455.732,11727.4,11571.7,0.0,11571.7,114.517,752.804,4757.14,5919.76,0.00341542,17.4442,8.51116,1.50229
455.0,11942.8,455.6318,11942.8,11706.9,0.0,11706.9,108.621,675.759,4141.45,6754.42,0.00235456,16.9007,8.28612,1.46982
454.9,11975.1,455.532,11975.1,11935.8,0.0,11935.8,103.165,609.194,3553.19,7644.35,0.00161512,16.3822,8.06985,1.43838
454.8,11784.9,455.432,11784.9,12209.9,0.0,12209.9,98.1056,551.433,3029.04,8506.2,0.00110235,15.887,7.86191,1.40795
454.7,11808,455.332,11808,12385.3,0.0,12385.3,93.4067,501.091,2580.23,9186.13,0.000748585,15.4138,7.66187,1.37846
454.6,11503,455.232,11503,12243.3,0.0,12243.3,89.0348,457.022,2204.04,9469.4,0.000505779,14.9613,7.46935,1.3499
454.5,11292.1,455.1318,11292.1,11580.9,0.0,11580.9,84.9605,418.278,1891.84,9162.66,0.000339991,14.5284,7.28397,1.32221
454.4,10723.1,455.032,10723.1,10354.7,0.0,10354.7,81.1576,384.072,1633.49,8233.43,0.00022738,14.1139,7.10539,1.29536
454.3,9878.66,454.932,9878.66,8747.23,0.0,8747.23,77.6026,353.751,1419.43,6874.53,0.000151289,13.7168,6.93327,1.26933
454.2,8254.69,454.832,8254.69,7057.7,0.0,7057.7,74.2746,326.769,1241.38,5393.93,0.000100143,13.3361,6.76732,1.24406
454.1,6096.11,454.732,6096.11,5529.38,0.0,5529.38,71.1549,302.67,1092.51,4042.25,6.59458e-05,12.971,6.60723,1.21955
454.0,4145.67,454.6318,4145.67,4274.73,0.0,4274.73,68.2265,281.07,967.283,2937.88,4.32014e-05,12.6207,6.45274,1.19575
453.9,2601.72,454.532,2601.72,3302.73,0.0,3302.73,65.4741,261.644,861.293,2094.56,2.81543e-05,12.2843,6.30359,1.17264
453.8,1747.52,454.432,1747.52,2572.92,0.0,2572.92,62.884,244.118,771.016,1475.63,1.82524e-05,11.9611,6.15954,1.1502
453.7,1298.28,454.332,1298.28,2032.72,0.0,2032.72,60.4439,228.257,693.645,1031.58,1.17712e-05,11.6504,6.02036,1.12839
453.6,858.614,454.232,858.614,1634.34,0.0,1634.34,58.1423,213.862,626.937,717.057,7.55148e-06,11.3517,5.88583,1.10719
453.5,664.496,454.1318,664.496,1339.72,0.0,1339.72,55.969,200.761,569.095,495.99,4.81897e-06,11.0642,5.75575,1.08659
453.4,626.482,454.032,626.482,1120.28,0.0,1120.28,53.9148,188.806,518.667,341.408,3.05899e-06,10.7875,5.62992,1.06655
453.3,499.832,453.932,499.832,955.169,0.0,955.169,51.9711,177.871,474.476,233.775,1.93151e-06,10.521,5.50817,1.04707
453.2,485.638,453.832,485.638,829.367,0.0,829.367,50.1302,167.844,435.563,159.147,1.21313e-06,10.2642,5.39031,1.02811
453.1,394.035,453.732,394.035,732.102,0.0,732.102,48.385,158.628,401.14,107.647,7.57884e-07,10.0167,5.27618,1.00966
453.0,265.582,453.6318,265.582,655.658,0.0,655.658,46.7289,150.141,370.557,72.2953,4.70952e-07,9.77802,5.16564,0.991709
452.9,332.893,453.532,332.893,594.499,0.0,594.499,45.1561,142.308,343.276,48.1782,2.91088e-07,9.54773,5.05852,0.974227
452.8,298.331,453.432,298.331,544.649,0.0,544.649,43.6611,135.065,318.847,31.8388,1.78954e-07,9.32544,4.9547,0.957204
452.7,289.602,453.332,289.602,503.245,0.0,503.245,42.2389,128.354,296.893,20.8537,1.09427e-07,9.11081,4.85403,0.940623
452.6,279.801,453.232,279.801,468.221,0.0,468.221,40.8847,122.125,277.096,13.5302,6.65523e-08,8.90348,4.75639,0.924468
452.5,178.571,453.1318,178.571,438.081,0.0,438.081,39.5945,116.334,259.187,8.69189,4.02585e-08,8.70313,4.66166,0.908726
452.4,199.029,453.032,199.029,411.741,0.0,411.741,38.3641,110.942,242.936,5.52617,2.42216e-08,8.50945,4.56973,0.893382
452.3,206.596,452.932,206.596,388.407,0.0,388.407,37.19,105.912,228.148,3.47588,1.44942e-08,8.32214,4.48049,0.878423
452.2,181.093,452.832,181.093,367.497,0.0,367.497,36.0688,101.213,214.654,2.16212,8.62635e-09,8.14093,4.39383,0.863837
452.1,180.489,452.732,180.489,348.579,0.0,348.579,34.9975,96.8174,202.31,1.32963,5.1062e-09,7.96556,4.30965,0.84961
452.0,131.695,452.6318,131.695,331.329,0.0,331.329,33.973,92.6995,190.989,0.808136,3.0061e-09,7.79578,4.22787,0.835732
451.9,152.794,452.532,152.794,315.5,0.0,315.5,32.9927,88.8367,180.583,0.485319,1.7601e-09,7.63136,4.14838,0.822191
451.8,70.6568,452.432,70.6568,300.9,0.0,300.9,32.0541,85.2085,170.997,0.287906,1.02494e-09,7.47208,4.07112,0.808976
451.7,112.364,452.332,112.364,287.377,0.0,287.377,31.1549,81.7964,162.148,0.168678,5.9359e-10,7.31771,3.99599,0.796077
451.6,175.475,452.232,175.475,274.811,0.0,274.811,30.2929,78.5838,153.962,0.09758,3.41894e-10,7.16807,3.92291,0.783484
451.5,180.851,452.1318,180.851,263.099,0.0,263.099,29.4661,75.5554,146.376,0.0557281,1.95843e-10,7.02296,3.85182,0.771187
451.4,48.738,452.032,48.738,252.159,0.0,252.159,28.6726,72.6976,139.333,0.0314141,1.11571e-10,6.88221,3.78264,0.759178
451.3,146.492,451.932,146.492,241.917,0.0,241.917,27.9106,69.9979,132.783,0.017476,6.32095e-11,6.74563,3.71531,0.747446
451.2,104.461,451.832,104.461,232.312,0.0,232.312,27.1786,67.4448,126.68,0.00959317,3.56162e-11,6.61307,3.64975,0.735984
451.1,52.0656,451.732,52.0656,223.29,0.0,223.29,26.4749,65.0281,120.986,0.00519548,1.99582e-11,6.48437,3.58591,0.724784
451.0,68.5313,451.6318,68.5313,214.801,0.0,214.801,25.7981,62.7383,115.665,0.00277574,1.11207e-11,6.35939,3.52373,0.713837
450.9,164.431,451.532,164.431,206.805,0.0,206.805,25.1469,60.5666,110.686,0.00146274,6.16208e-12,6.23797,3.46315,0.703136
450.8,90.4152,451.432,90.4152,199.262,0.0,199.262,24.52,58.5051,106.019,0.000760238,3.39624e-12,6.11999,3.40412,0.692674
450.7,61.0,451.332,61.0,192.137,0.0,192.137,23.9162,56.5466,101.64,0.000389653,1.86236e-12,6.00532,3.34658,0.682444
450.6,0.0,451.232,0.0,185.4,0.0,185.4,23.3344,54.6843,97.5248,0.00019693,1.01335e-12,5.89384,3.29049,0.672438
450.5,25.0,451.1318,25.0,179.023,0.0,179.023,22.7735,52.912,93.6535,9.81328e-05,5.51151e-13,5.78543,3.23579,0.662651
450.4,126.0,451.032,126.0,172.979,0.0,172.979,22.2325,51.2241,90.007,4.82113e-05,2.969e-13,5.67997,3.18244,0.653076
450.3,45.0,450.932,45.0,167.246,0.0,167.246,21.7106,49.6154,86.5685,2.33497e-05,1.60311e-13,5.57737,3.1304,0.643706
450.2,99.0,450.832,99.0,161.802,0.0,161.802,21.2068,48.0809,83.3224,1.11476e-05,8.34391e-14,5.47752,3.07962,0.634537
450.1,92.0,450.732,92.0,156.627,0.0,156.627,20.7203,46.6162,80.2547,5.24594e-06,4.4079e-14,5.38032,3.03007,0.625562
450.0,80.0,450.6318,80.0,151.704,0.0,151.704,20.2503,45.2172,77.3526,2.43318e-06,2.4716e-14,5.28568,2.9817,0.616777