File: XPS/LG4X-result/MX-HT-0.5-Ti2p_3.csv
#No of rows lightened (2D detector)1(if not using 2D detector, value is 1 and can be ignored!)
raw_x,raw_y,corrected x,data-bg,sum_components,bg,sum_fit,C_1,C_2,C_3,C_4,C_5,C_6,C_7,C_8
470.0,366.0,470.6318,366.0,151.782,0.0,151.782,13.2719,10.5579,10.9257,20.4576,78.3116,8.26145,8.33875,1.65688
469.9,458.0,470.5318,458.0,154.724,0.0,154.724,13.5095,10.716,11.0768,20.725,79.9681,8.45212,8.56116,1.71488
469.8,322.0,470.432,322.0,157.755,0.0,157.755,13.7536,10.8776,11.2309,20.9977,81.6775,8.64945,8.79255,1.77596
469.7,415.0,470.332,415.0,160.881,0.0,160.881,14.0042,11.0428,11.3883,21.2757,83.442,8.85375,9.03342,1.84037
469.6,354.0,470.2318,354.0,164.104,0.0,164.104,14.2618,11.2119,11.5491,21.5594,85.264,9.06535,9.28429,1.90833
469.5,329.0,470.1318,329.0,167.43,0.0,167.43,14.5266,11.3849,11.7133,21.8487,87.1461,9.2846,9.54571,1.98012
469.4,363.0,470.0318,363.0,170.863,0.0,170.863,14.7988,11.5619,11.881,22.1439,89.0908,9.51188,9.81828,2.05603
469.3,299.0,469.932,299.0,174.407,0.0,174.407,15.0787,11.743,12.0523,22.4452,91.1009,9.74758,10.1027,2.13638
469.2,316.0,469.832,316.0,178.068,0.0,178.068,15.3666,11.9285,12.2273,22.7526,93.1795,9.99212,10.3995,2.22152
469.1,313.0,469.7318,313.0,181.851,0.0,181.851,15.6628,12.1183,12.4062,23.0664,95.3297,10.2459,10.7096,2.31184
469.0,213.0,469.6318,213.0,185.762,0.0,185.762,15.9677,12.3128,12.5891,23.3867,97.5546,10.5095,11.0337,2.40777
468.9,206.0,469.5318,206.0,189.807,0.0,189.807,16.2815,12.5119,12.776,23.7137,99.858,10.7834,11.3726,2.50978
468.8,140.0,469.432,140.0,193.992,0.0,193.992,16.6047,12.7159,12.9671,24.0476,102.243,11.068,11.7274,2.61839
468.7,217.0,469.332,217.0,198.325,0.0,198.325,16.9375,12.9249,13.1625,24.3887,104.715,11.3641,12.0989,2.73419
468.6,211.0,469.2318,211.0,202.813,0.0,202.813,17.2805,13.1392,13.3623,24.737,107.276,11.6721,12.4882,2.85782
468.5,212.0,469.1318,212.0,207.464,0.0,207.464,17.634,13.3587,13.5668,25.0928,109.932,11.9928,12.8966,2.98999
468.4,223.0,469.0318,223.0,212.285,0.0,212.285,17.9984,13.5839,13.776,25.4564,112.687,12.3268,13.3252,3.13152
468.3,146.0,468.932,146.0,217.287,0.0,217.287,18.3742,13.8147,13.99,25.8279,115.546,12.6749,13.7755,3.2833
468.2,195.0,468.832,195.0,222.478,0.0,222.478,18.7618,14.0515,14.2091,26.2076,118.515,13.0378,14.2488,3.44635
468.1,161.0,468.7318,161.0,227.869,0.0,227.869,19.1619,14.2944,14.4333,26.5958,121.599,13.4166,14.7467,3.6218
468.0,107.0,468.6318,107.0,233.472,0.0,233.472,19.5749,14.5437,14.6629,26.9926,124.804,13.812,15.2711,3.81094
467.9,87.0,468.5318,87.0,239.297,0.0,239.297,20.0013,14.7995,14.898,27.3984,128.136,14.225,15.8237,4.01523
467.8,117.0,468.432,117.0,245.358,0.0,245.358,20.4418,15.0622,15.1388,27.8134,131.602,14.6568,16.4067,4.23631
467.7,0.0,468.332,0.0,251.669,0.0,251.669,20.897,15.3318,15.3855,28.2378,135.21,15.1084,17.0223,4.47607
467.6,104.403,468.2318,104.403,258.244,0.0,258.244,21.3675,15.6088,15.6383,28.6721,138.967,15.5811,17.673,4.73667
467.5,78.1081,468.1318,78.1081,265.101,0.0,265.101,21.8541,15.8934,15.8973,29.1165,142.881,16.0762,18.3614,5.02057
467.4,22.4966,468.0318,22.4966,272.255,0.0,272.255,22.3574,16.1857,16.1629,29.5712,146.962,16.5952,19.0905,5.33063
467.3,63.83,467.932,63.83,279.727,0.0,279.727,22.8783,16.4862,16.4351,30.0367,151.218,17.1395,19.8635,5.67013
467.2,59.3055,467.832,59.3055,287.538,0.0,287.538,23.4176,16.7952,16.7142,30.5133,155.66,17.7109,20.684,6.04289
467.1,59.7654,467.7318,59.7654,295.71,0.0,295.71,23.9761,17.1129,17.0006,31.0013,160.299,18.3112,21.556,6.45338
467.0,104.399,467.6318,104.399,304.269,0.0,304.269,24.5548,17.4396,17.2943,31.501,165.146,18.9424,22.4837,6.90683
466.9,89.1468,467.5318,89.1468,313.241,0.0,313.241,25.1547,17.7758,17.5957,32.013,170.214,19.6065,23.4721,7.40938
466.8,100.881,467.432,100.881,322.658,0.0,322.658,25.7768,18.1219,17.905,32.5375,175.516,20.3058,24.5265,7.96833
466.7,125.756,467.332,125.756,332.554,0.0,332.554,26.4222,18.478,18.2226,33.075,181.068,21.0431,25.6527,8.59234
466.6,217.08,467.2318,217.08,342.965,0.0,342.965,27.0921,18.8448,18.5487,33.626,186.883,21.8209,26.8574,9.29182
466.5,171.581,467.1318,171.581,353.935,0.0,353.935,27.7877,19.2226,18.8836,34.1908,192.981,22.6422,28.148,10.0793
466.4,250.21,467.0318,250.21,365.51,0.0,365.51,28.5103,19.6119,19.2276,34.7699,199.378,23.5105,29.5328,10.9699
466.3,198.945,466.932,198.945,377.746,0.0,377.746,29.2615,20.013,19.5812,35.3639,206.094,24.4292,31.0209,11.9823
466.2,158.324,466.832,158.324,390.702,0.0,390.702,30.0427,20.4266,19.9445,35.9732,213.15,25.4024,32.6228,13.1394
466.1,271.986,466.7318,271.986,404.45,0.0,404.45,30.8555,20.8531,20.3181,36.5984,220.571,26.4344,34.3502,14.4695
466.0,254.018,466.6318,254.018,419.071,0.0,419.071,31.7016,21.2931,20.7022,37.2401,228.38,27.5299,36.2164,16.0082
465.9,270.041,466.5318,270.041,434.662,0.0,434.662,32.5829,21.7471,21.0973,37.8987,236.605,28.6943,38.2364,17.8006
465.8,275.147,466.432,275.147,451.336,0.0,451.336,33.5013,22.2157,21.5038,38.5749,245.276,29.9333,40.4271,19.9041
465.7,358.594,466.332,358.594,469.229,0.0,469.229,34.4591,22.6997,21.9222,39.2694,254.424,31.2534,42.8082,22.3929
465.6,562.15,466.2318,562.15,488.507,0.0,488.507,35.4583,23.1996,22.3529,39.9828,264.085,32.6619,45.4017,25.364
465.5,484.191,466.1318,484.191,509.373,0.0,509.373,36.5015,23.7161,22.7964,40.7158,274.298,34.1665,48.2332,28.9453
465.4,399.604,466.0318,399.604,532.083,0.0,532.083,37.5913,24.2501,23.2532,41.4692,285.104,35.7762,51.332,33.3078
465.3,585.408,465.932,585.408,556.964,0.0,556.964,38.7305,24.8022,23.7239,42.2436,296.548,37.5008,54.732,38.6831
465.2,708.405,465.832,708.405,584.438,0.0,584.438,39.922,25.3734,24.2089,43.0399,308.682,39.3515,58.4723,45.3882
465.1,836.371,465.7318,836.371,615.062,0.0,615.062,41.1692,25.9645,24.709,43.8589,321.56,41.3405,62.5987,53.8612
465.0,852.895,465.6318,852.895,649.578,0.0,649.578,42.4755,26.5765,25.2247,44.7014,335.243,43.4818,67.1643,64.711
464.9,821.361,465.5318,821.361,688.98,0.0,688.98,43.8447,27.2102,25.7567,45.5685,349.797,45.7911,72.2315,78.7807
464.8,874.912,465.432,874.912,734.584,0.0,734.584,45.281,27.8669,26.3057,46.461,365.295,48.286,77.8737,97.2139
464.7,813.432,465.332,813.432,788.038,0.0,788.038,46.7887,28.5475,26.8724,47.38,381.819,50.9867,84.1776,121.466
464.6,940.204,465.2318,940.204,851.123,0.0,851.123,48.3726,29.2534,27.4576,48.3265,399.457,53.916,91.2458,153.094
464.5,1049.89,465.1318,1049.89,924.892,0.0,924.892,50.038,29.9856,28.0621,49.3016,418.307,57.0997,99.2005,192.897
464.4,1065.06,465.0318,1065.06,1007.46,0.0,1007.46,51.7904,30.7456,28.6867,50.3065,438.477,60.5675,108.188,238.703
464.3,1169.69,464.932,1169.69,1090.56,0.0,1090.56,53.6362,31.5348,29.3324,51.3424,460.088,64.3535,118.382,281.887
464.2,1163.7,464.832,1163.7,1158.97,0.0,1158.97,55.5818,32.3547,30.0001,52.4106,483.271,68.4966,129.994,306.866
464.1,1131.56,464.7318,1131.56,1200.47,0.0,1200.47,57.6347,33.2068,30.6908,53.5124,508.172,73.0418,143.277,300.933
464.0,1146.36,464.6318,1146.36,1218.84,0.0,1218.84,59.8029,34.093,31.4056,54.6493,534.952,78.0414,158.534,267.361
463.9,1345.99,464.5318,1345.99,1230.26,0.0,1230.26,62.095,35.015,32.1456,55.8228,563.79,83.5557,176.135,221.703
463.8,1301.21,464.432,1301.21,1248.99,0.0,1248.99,64.5207,35.9747,32.9121,57.0345,594.88,89.6553,196.518,177.499
463.7,1267.13,464.332,1267.13,1281.77,0.0,1281.77,67.0905,36.9744,33.7062,58.286,628.439,96.4227,220.21,140.644
463.6,1346.22,464.2318,1346.22,1330.29,0.0,1330.29,69.8158,38.0161,34.5294,59.579,664.704,103.954,247.827,111.863
463.5,1363.69,464.1318,1363.69,1394.4,0.0,1394.4,72.7096,39.1023,35.383,60.9156,703.934,112.364,280.078,89.9133
463.4,1563.99,464.0318,1563.99,1473.75,0.0,1473.75,75.7858,40.2356,36.2686,62.2975,746.414,121.787,317.741,73.2215
463.3,1406.47,463.932,1406.47,1568.27,0.0,1568.27,79.06,41.4186,37.1878,63.727,792.451,132.382,361.608,60.4392
463.2,1564.94,463.832,1564.94,1678.18,0.0,1678.18,82.5494,42.6544,38.1424,65.2062,842.384,144.339,412.363,50.5383
463.1,1742.71,463.7318,1742.71,1803.66,0.0,1803.66,86.2732,43.9461,39.134,66.7374,896.572,157.883,470.347,42.7691
463.0,1892.75,463.6318,1892.75,1944.49,0.0,1944.49,90.2525,45.2971,40.1648,68.3231,955.406,173.283,535.175,36.5914
462.9,2029.9,463.5318,2029.9,2099.37,0.0,2099.37,94.5112,46.7111,41.2368,69.9659,1019.3,190.861,605.17,31.6163
462.8,2012.52,463.432,2012.52,2265.25,0.0,2265.25,99.0758,48.192,42.3521,71.6686,1088.68,211.001,676.716,27.5614
462.7,2196.77,463.332,2196.77,2436.86,0.0,2436.86,103.976,49.7442,43.5132,73.4341,1164.01,234.156,743.805,24.2194
462.6,2371.41,463.232,2371.41,2607.01,0.0,2607.01,109.245,51.3722,44.7226,75.2656,1245.75,260.864,798.357,21.4368
462.5,2542.39,463.1318,2542.39,2768.22,0.0,2768.22,114.921,53.081,45.9829,77.1663,1334.36,291.751,831.86,19.0981
462.4,2604.27,463.032,2604.27,2915.42,0.0,2915.42,121.045,54.876,47.2972,79.1398,1430.27,327.529,838.156,17.1155
462.3,2654.58,462.932,2654.58,3048.57,0.0,3048.57,127.667,56.7631,48.6685,81.1899,1533.88,368.981,816.003,15.4213
462.2,2960.26,462.832,2960.26,3173.04,0.0,3173.04,134.84,58.7488,50.1001,83.3206,1645.5,416.912,769.649,13.9632
462.1,3114.72,462.732,3114.72,3297.63,0.0,3297.63,142.626,60.8398,51.5956,85.5361,1765.33,472.05,706.954,12.6998
462.0,3277.41,462.6318,3277.41,3431.41,0.0,3431.41,151.097,63.0438,53.1589,87.841,1893.35,534.854,636.471,11.5984
461.9,3516.65,462.532,3516.65,3581.05,0.0,3581.05,160.335,65.3689,54.7941,90.2401,2029.26,605.205,565.219,10.6327
461.8,3789.86,462.432,3789.86,3749.41,0.0,3749.41,170.431,67.8243,56.5057,92.7387,2172.36,681.936,497.832,9.78157
461.7,3842.34,462.332,3842.34,3934.98,0.0,3934.98,181.496,70.4197,58.2985,95.3423,2321.39,762.248,436.756,9.02773
461.6,3899.24,462.232,3899.24,4131.77,0.0,4131.77,193.653,73.1658,60.1777,98.0569,2474.33,841.169,382.859,8.35705
461.5,4252.72,462.1318,4252.72,4329.61,0.0,4329.61,207.049,76.0745,62.1489,100.889,2628.18,911.453,336.059,7.75783
461.4,4216.43,462.032,4216.43,4515.23,0.0,4515.23,221.853,79.1589,64.2182,103.845,2778.73,964.419,295.786,7.22033
461.3,4347.5,461.932,4347.5,4674.39,0.0,4674.39,238.266,82.4331,66.3922,106.933,2920.35,992.01,261.274,6.73644
461.2,4600.06,461.832,4600.06,4794.66,0.0,4794.66,256.523,85.913,68.6781,110.16,3045.88,989.482,231.729,6.29929
461.1,4963.99,461.732,4963.99,4867.5,0.0,4867.5,276.903,89.616,71.0836,113.535,3146.77,957.284,206.407,5.90309
461.0,4964.33,461.6318,4964.33,4888.55,0.0,4888.55,299.736,93.5614,73.6172,117.067,3213.5,900.876,184.651,5.54291
460.9,4855.26,461.532,4855.26,4856.51,0.0,4856.51,325.419,97.7706,76.2881,120.767,3236.56,828.601,165.896,5.21454
460.8,4847.73,461.432,4847.73,4771.86,0.0,4771.86,354.427,102.267,79.1063,124.644,3207.82,749.011,149.666,4.91436
460.7,4657.44,461.332,4657.44,4636.7,0.0,4636.7,387.335,107.078,82.0829,128.71,3122.28,669.008,135.563,4.63925
460.6,4818.03,461.232,4818.03,4455.68,0.0,4455.68,424.84,112.233,85.2299,132.978,2979.57,593.183,123.257,4.38651
460.5,4582.34,461.1318,4582.34,4237.06,0.0,4237.06,467.79,117.765,88.5604,137.461,2784.83,524.024,112.473,4.15378
460.4,4360.87,461.032,4360.87,3993.01,0.0,3993.01,517.226,123.711,92.089,142.174,2548.4,462.489,102.982,3.93902
460.3,4064.41,460.932,4064.41,3738.65,0.0,3738.65,574.425,130.112,95.8315,147.133,2284.23,408.575,94.5971,3.74043
460.2,3704.41,460.832,3704.41,3490.28,0.0,3490.28,640.964,137.017,99.8056,152.355,2007.66,361.76,87.1586,3.55643
460.1,3452.05,460.732,3452.05,3263.38,0.0,3263.38,718.79,144.478,104.031,157.86,1733,321.294,80.5352,3.38563
460.0,3177.66,460.6318,3177.66,3071.15,0.0,3071.15,810.307,152.556,108.528,163.667,1471.88,286.37,74.6161,3.22681
459.9,2991.48,460.532,2991.48,2923.9,0.0,2923.9,918.466,161.319,113.321,169.799,1232.39,256.215,69.3079,3.07887
459.8,2863.09,460.432,2863.09,2829.16,0.0,2829.16,1046.86,170.846,118.437,176.281,1019.14,230.13,64.5318,2.94084
459.7,2881.28,460.332,2881.28,2792.32,0.0,2792.32,1199.75,181.227,123.905,183.14,833.769,207.504,60.221,2.81187
459.6,2852.42,460.232,2852.42,2817.36,0.0,2817.36,1382.02,192.564,129.758,190.406,675.78,187.814,56.3184,2.69117
459.5,3015.08,460.1318,3015.08,2907.24,0.0,2907.24,1598.87,204.976,136.032,198.111,543.275,170.618,52.7752,2.57806
459.4,3079.62,460.032,3079.62,3063.76,0.0,3063.76,1854.94,218.6,142.768,206.291,433.601,155.542,49.5496,2.47191
459.3,3293.23,459.932,3293.23,3286.23,0.0,3286.23,2152.56,233.595,150.012,214.986,343.816,142.276,46.6054,2.37218
459.2,3617.92,459.832,3617.92,3568.62,0.0,3568.62,2488.68,250.145,157.818,224.24,270.993,130.557,43.9114,2.27834
459.1,3927.06,459.732,3927.06,3895.01,0.0,3895.01,2850.01,268.467,166.242,234.102,212.396,120.166,41.4406,2.18995
459.0,4243.61,459.6318,4243.61,4234.47,0.0,4234.47,3207.9,288.815,175.352,244.625,165.58,110.92,39.1694,2.1066
458.9,4435.13,459.532,4435.13,4539.15,0.0,4539.15,3516.39,311.488,185.224,255.871,128.413,102.662,37.0772,2.0279
458.8,4488.59,459.432,4488.59,4751.91,0.0,4751.91,3719.78,336.838,195.944,267.905,99.0807,95.2632,35.146,1.95353
458.7,4595.67,459.332,4595.67,4826.05,0.0,4826.05,3772.43,365.287,207.61,280.803,76.0615,88.6116,33.3598,1.88316
458.6,4712.62,459.232,4712.62,4747.84,0.0,4747.84,3661.3,397.334,220.336,294.651,58.0943,82.6132,31.7047,1.81653
458.5,4585.53,459.1318,4585.53,4543.93,0.0,4543.93,3413.3,433.58,234.252,309.541,44.1446,77.1879,30.1683,1.75336
458.4,4185.4,459.032,4185.4,4266.49,0.0,4266.49,3080.58,474.746,249.509,325.581,33.3713,72.2667,28.7397,1.69342
458.3,3862.49,458.932,3862.49,3969.8,0.0,3969.8,2716.99,521.701,266.282,342.891,25.095,67.7908,27.4091,1.6365
458.2,3833.21,458.832,3833.21,3694.54,0.0,3694.54,2362.43,575.496,284.775,361.608,18.7708,63.7092,26.1679,1.5824
458.1,3541.69,458.732,3541.69,3464.45,0.0,3464.45,2039.45,637.405,305.227,381.887,13.9643,59.978,25.0083,1.53093
458.0,3227.83,458.6318,3227.83,3290.05,0.0,3290.05,1756.96,708.97,327.918,403.906,10.3314,56.5589,23.9234,1.48193
457.9,3133.4,458.532,3133.4,3174.08,0.0,3174.08,1515.62,792.055,353.18,427.866,7.6008,53.4189,22.9069,1.43524
457.8,3098.46,458.432,3098.46,3115.68,0.0,3115.68,1311.95,888.898,381.407,453.999,5.56004,50.5288,21.9533,1.39072
457.7,2972.91,458.332,2972.91,3113.07,0.0,3113.07,1140.96,1002.16,413.068,482.572,4.04364,47.8633,21.0576,1.34824
457.6,3103.38,458.232,3103.38,3164.93,0.0,3164.93,997.525,1134.94,448.727,513.894,2.92352,45.4001,20.2152,1.30767
457.5,3258.95,458.1318,3258.95,3270.95,0.0,3270.95,876.958,1290.7,489.063,548.32,2.10105,43.1195,19.4219,1.2689
457.4,3364.53,458.032,3364.53,3431.9,0.0,3431.9,775.237,1473.09,534.9,586.263,1.50082,41.0042,18.6741,1.23183
457.3,3580.35,457.932,3580.35,3649.14,0.0,3649.14,689.014,1685.41,587.244,628.205,1.06548,39.0388,17.9683,1.19636
457.2,3878.15,457.832,3878.15,3923.71,0.0,3923.71,615.548,1929.7,647.327,674.707,0.751707,37.2097,17.3016,1.1624
457.1,4050.78,457.732,4050.78,4254.57,0.0,4254.57,552.613,2205.03,716.671,726.424,0.526999,35.5046,16.671,1.12986
457.0,4359.25,457.6318,4359.25,4636.11,0.0,4636.11,498.405,2504.96,797.164,784.125,0.367109,33.9128,16.0741,1.09867
456.9,4789.59,457.532,4789.59,5055,0.0,5055,451.465,2814.41,891.158,848.711,0.254082,32.4245,15.5085,1.06875
456.8,5051.59,457.432,5051.59,5487.93,0.0,5487.93,410.606,3107.27,1001.6,921.243,0.17471,31.0311,14.972,1.04003
456.7,5421.04,457.332,5421.04,5902.66,0.0,5902.66,374.864,3347.34,1132.17,1002.97,0.119343,29.7247,14.4627,1.01246
456.6,5859.6,457.232,5859.6,6265.52,0.0,6265.52,343.449,3495.65,1287.51,1095.37,0.0809821,28.4984,13.9789,0.985963
456.5,6313.62,457.1318,6313.62,6554.76,0.0,6554.76,315.712,3523.59,1473.39,1200.19,0.054584,27.3457,13.5188,0.960494
456.4,6801.27,457.032,6801.27,6773.21,0.0,6773.21,291.117,3425.37,1696.91,1319.49,0.0365429,26.2609,13.0809,0.935999
456.3,7127.06,456.932,7127.06,6951.22,0.0,6951.22,269.219,3220.79,1966.63,1455.74,0.0242985,25.2389,12.6639,0.912428
456.2,7514.6,456.832,7514.6,7137.34,0.0,7137.34,249.648,2946.08,2292.29,1611.87,0.0160463,24.2749,12.2664,0.889736
456.1,7994.5,456.732,7994.5,7383.53,0.0,7383.53,232.092,2639.98,2683.95,1791.38,0.0105236,23.3647,11.8872,0.867879
456.0,8265.29,456.6318,8265.29,7732.6,0.0,7732.6,216.289,2333.43,3149.51,1998.49,0.0068538,22.5044,11.5253,0.846817
455.9,8768.07,456.532,8768.07,8209.93,0.0,8209.93,202.019,2046.15,3689.84,2238.22,0.00443258,21.6904,11.1796,0.826511
455.8,9263.71,456.432,9263.71,8816.27,0.0,8816.27,189.092,1787.95,4289.99,2516.65,0.00284657,20.9195,10.8491,0.806927
455.7,9548.36,456.332,9548.36,9519.22,0.0,9519.22,177.349,1561.81,4907.52,2841.02,0.00181515,20.1886,10.533,0.78803
455.6,9985.8,456.232,9985.8,10247.7,0.0,10247.7,166.65,1366.74,5463.93,3219.86,0.00114923,19.4952,10.2305,0.769789
455.5,10372.4,456.1318,10372.4,10902.2,0.0,10902.2,156.878,1199.81,5853.09,3662.93,0.00072243,18.8367,9.94078,0.752173
455.4,10573.3,456.032,10573.3,11393.3,0.0,11393.3,147.93,1057.46,5978.62,4180.72,0.00045088,18.2107,9.66314,0.735155
455.3,11192.4,455.932,11192.4,11691.7,0.0,11691.7,139.717,936.09,5805.27,4782.88,0.000279376,17.6153,9.39693,0.718707
455.2,11583.3,455.832,11583.3,11847.2,0.0,11847.2,132.161,832.44,5381.17,5474.51,0.000171857,17.0485,9.14154,0.702805
455.1,11727.4,455.732,11727.4,11951.3,0.0,11951.3,125.196,743.656,4807.9,6248.47,0.000104949,16.5084,8.89638,0.687424
455.0,11942.8,455.6318,11942.8,12071.4,0.0,12071.4,118.761,667.319,4188.83,7071.16,6.36237e-05,15.9934,8.66091,0.672543
454.9,11975.1,455.532,11975.1,12196.6,0.0,12196.6,112.805,601.407,3596.46,7861.33,3.82886e-05,15.5021,8.43465,0.658139
454.8,11784.9,455.432,11784.9,12214.4,0.0,12214.4,107.282,544.245,3067.92,8471.03,2.2873e-05,15.0329,8.2171,0.644193
454.7,11808,455.332,11808,11932.9,0.0,11932.9,102.151,494.449,2614.81,8698.32,1.35633e-05,14.5846,8.00784,0.630685
454.6,11503,455.232,11503,11176.1,0.0,11176.1,97.3771,450.876,2234.62,8370.62,7.98342e-06,14.156,7.80645,0.617597
454.5,11292.1,455.1318,11292.1,9921.44,0.0,9921.44,92.9271,412.582,1918.83,7475.14,4.66427e-06,13.7459,7.61254,0.604912
454.4,10723.1,455.032,10723.1,8352.24,0.0,8352.24,88.773,378.784,1657.33,6205.98,2.70482e-06,13.3534,7.42574,0.592614
454.3,9878.66,454.932,9878.66,6744.17,0.0,6744.17,84.8893,348.833,1440.53,4849.11,1.55685e-06,12.9773,7.24572,0.580686
454.2,8254.69,454.832,8254.69,5309.45,0.0,5309.45,81.2532,322.188,1260.11,3625.64,8.89398e-07,12.6168,7.07214,0.569115
454.1,6096.11,454.732,6096.11,4138.75,0.0,4138.75,77.8442,298.395,1109.19,2633.58,5.04291e-07,12.271,6.90472,0.557887
454.0,4145.67,454.6318,4145.67,3232.27,0.0,3232.27,74.644,277.074,982.212,1879.12,2.83788e-07,11.9393,6.74315,0.546987
453.9,2601.72,454.532,2601.72,2549.27,0.0,2549.27,71.6359,257.902,874.702,1326.29,1.58499e-07,11.6207,6.58717,0.536403
453.8,1747.52,454.432,1747.52,2040.4,0.0,2040.4,68.805,240.607,783.107,929.599,8.78555e-08,11.3147,6.43653,0.526124
453.7,1298.28,454.332,1298.28,1661.77,0.0,1661.77,66.1377,224.959,704.59,648.257,4.833e-08,11.0206,6.29099,0.516136
453.6,858.614,454.232,858.614,1378.73,0.0,1378.73,63.6216,210.758,636.883,450.073,2.63854e-08,10.7377,6.15031,0.506431
453.5,664.496,454.1318,664.496,1165.32,0.0,1165.32,61.2457,197.836,578.165,311.093,1.42955e-08,10.4656,6.01429,0.496996
453.4,626.482,454.032,626.482,1002.58,0.0,1002.58,58.9998,186.046,526.966,213.99,7.68639e-09,10.2037,5.88273,0.487823
453.3,499.832,453.932,499.832,876.817,0.0,876.817,56.8746,175.262,482.095,146.4,4.10132e-09,9.95139,5.75542,0.478901
453.2,485.638,453.832,485.638,778.177,0.0,778.177,54.8616,165.374,442.578,99.5523,2.17169e-09,9.70833,5.63219,0.470222
453.1,394.035,453.732,394.035,699.548,0.0,699.548,52.9531,156.288,407.618,67.2407,1.14114e-09,9.47404,5.51287,0.461776
453.0,265.582,453.6318,265.582,635.799,0.0,635.799,51.1421,147.92,376.556,45.0822,5.95039e-10,9.2481,5.3973,0.453556
452.9,332.893,453.532,332.893,583.212,0.0,583.212,49.422,140.198,348.845,29.9852,3.07896e-10,9.03013,5.28531,0.445553
452.8,298.331,453.432,298.331,539.083,0.0,539.083,47.7869,133.058,324.03,19.774,1.58096e-10,8.81975,5.17677,0.43776
452.7,289.602,453.332,289.602,501.442,0.0,501.442,46.2313,126.443,301.727,12.9224,8.05534e-11,8.61662,5.07152,0.430169
452.6,279.801,453.232,279.801,468.846,0.0,468.846,44.7502,120.304,281.615,8.36468,4.07241e-11,8.4204,4.96945,0.422774
452.5,178.571,453.1318,178.571,440.232,0.0,440.232,43.3388,114.597,263.419,5.36077,2.04333e-11,8.2308,4.87043,0.415569
452.4,199.029,453.032,199.029,414.814,0.0,414.814,41.9929,109.282,246.908,3.40023,1.01741e-11,8.04751,4.77433,0.408545
452.3,206.596,452.932,206.596,392.002,0.0,392.002,40.7086,104.325,231.882,2.13372,5.02374e-12,7.87025,4.68104,0.401698
452.2,181.093,452.832,181.093,371.356,0.0,371.356,39.482,99.6944,218.171,1.32427,2.46417e-12,7.69878,4.59045,0.395022
452.1,180.489,452.732,180.489,352.537,0.0,352.537,38.3099,95.3628,205.628,0.812639,1.19806e-12,7.53284,4.50247,0.388511
452.0,131.695,452.6318,131.695,335.283,0.0,335.283,37.1891,91.3052,194.124,0.492931,5.7728e-13,7.37219,4.41698,0.38216
451.9,152.794,452.532,152.794,319.387,0.0,319.387,36.1166,87.499,183.55,0.295484,2.76874e-13,7.21661,4.3339,0.375962
451.8,70.6568,452.432,70.6568,304.686,0.0,304.686,35.0896,83.9241,173.808,0.175004,1.32781e-13,7.06589,4.25314,0.369915
451.7,112.364,452.332,112.364,291.044,0.0,291.044,34.1058,80.5622,164.815,0.102385,5.99247e-14,6.91984,4.17462,0.364012
451.6,175.475,452.232,175.475,278.35,0.0,278.35,33.1626,77.3969,156.497,0.0591587,2.93053e-14,6.77826,4.09824,0.358249
451.5,180.851,452.1318,180.851,266.51,0.0,266.51,32.2579,74.4133,148.787,0.0337536,1.43347e-14,6.64097,4.02394,0.352622
451.4,48.738,452.032,48.738,255.442,0.0,255.442,31.3896,71.5978,141.629,0.019014,4.67566e-15,6.5078,3.95164,0.347126
451.3,146.492,451.932,146.492,245.078,0.0,245.078,30.5558,68.938,134.972,0.0105734,4.57633e-15,6.37859,3.88126,0.341758
451.2,104.461,451.832,104.461,235.356,0.0,235.356,29.7548,66.4229,128.77,0.00580339,0.0,6.25318,3.81275,0.336513
451.1,52.0656,451.732,52.0656,226.222,0.0,226.222,28.9847,64.0421,122.983,0.00314358,0.0,6.13142,3.74603,0.331389
451.0,68.5313,451.6318,68.5313,217.628,0.0,217.628,28.2441,61.7864,117.575,0.00168032,0.0,6.01318,3.68105,0.32638
450.9,164.431,451.532,164.431,209.531,0.0,209.531,27.5314,59.6471,112.514,0.000886207,0.0,5.89832,3.61773,0.321484
450.8,90.4152,451.432,90.4152,201.892,0.0,201.892,26.8453,57.6164,107.771,0.000461119,0.0,5.78672,3.55604,0.316697
450.7,61.0,451.332,61.0,194.678,0.0,194.678,26.1845,55.6871,103.32,0.000236692,0.0,5.67824,3.49591,0.312016
450.6,0.0,451.232,0.0,187.855,0.0,187.855,25.5477,53.8527,99.1372,0.000119842,0.0,5.57279,3.43729,0.307438
450.5,25.0,451.1318,25.0,181.397,0.0,181.397,24.9339,52.107,95.2024,5.98488e-05,0.0,5.47024,3.38013,0.302961
450.4,126.0,451.032,126.0,175.276,0.0,175.276,24.3418,50.4444,91.4961,2.94774e-05,0.0,5.37048,3.32438,0.29858
450.3,45.0,450.932,45.0,169.469,0.0,169.469,23.7705,48.8598,88.001,1.43179e-05,0.0,5.27343,3.27,0.294294
450.2,99.0,450.832,99.0,163.955,0.0,163.955,23.2191,47.3483,84.7015,6.85796e-06,0.0,5.17898,3.21694,0.290099
450.1,92.0,450.732,92.0,158.714,0.0,158.714,22.6866,45.9057,81.5834,3.23901e-06,0.0,5.08704,3.16516,0.285993
450.0,80.0,450.6318,80.0,153.728,0.0,153.728,22.1722,44.5277,78.6336,1.50835e-06,0.0,4.99752,3.11462,0.281974