File: XPS/LG4X-result/MX-HT-0.5-Ti2p.csv
#No of rows lightened (2D detector)1(if not using 2D detector, value is 1 and can be ignored!)
raw_x,raw_y,corrected x,data-bg,sum_components,bg,sum_fit,Ti-C,Ti 2+,Ti 3+,TiO2,Ti-C(1/2),Ti 2+(1/2),Ti 3+(1/2)
467.3,6895.0,467.944,5.0,-6822.52,6890.0,67.48,24.8277,2.80177e-138,9.43589e-41,39.568,6.21505e-18,7.00954e-05,3.08428
467.2,6890.0,467.8439,0.0,-6819.9,6890.0,70.0973,25.2184,6.17414e-136,5.67364e-40,40.495,2.44135e-17,0.000130925,4.38369
467.1,6890.0,467.7439,0.0,-6816.77,6890.0,73.2337,25.6185,1.30055e-133,3.35675e-39,41.4549,9.40203e-17,0.000241772,6.16008
467.0,6934.0,467.6439,44.1757,-6812.79,6889.82,77.0362,26.0282,2.61869e-131,1.95413e-38,42.4492,3.54993e-16,0.000441407,8.55841
466.9,6918.0,467.544,28.4646,-6807.85,6889.54,81.6841,26.4477,5.0402e-129,1.11934e-37,43.4796,1.31409e-15,0.000796747,11.756
466.8,6929.0,467.444,39.7358,-6801.87,6889.26,87.3924,26.8775,9.27295e-127,6.30888e-37,44.5477,4.7691e-15,0.00142184,15.9658
466.7,6953.0,467.3439,64.1489,-6794.44,6888.85,94.4137,27.3178,1.63078e-124,3.4988e-36,45.6556,1.69689e-14,0.0025086,21.4377
466.6,7043.0,467.2439,155.021,-6784.94,6887.98,103.038,27.7691,2.74144e-122,1.90925e-35,46.8052,5.91941e-14,0.00437583,28.4596
466.5,6996.0,467.1439,109.071,-6773.34,6886.93,113.592,28.2316,4.40522e-120,1.02514e-34,47.9985,2.02446e-13,0.00754637,37.3543
466.4,7073.0,467.044,187.249,-6759.32,6885.75,126.431,28.7058,6.7665e-118,5.41603e-34,49.2379,6.78808e-13,0.0128667,48.4744
466.3,7020.0,466.944,135.533,-6742.53,6884.47,141.933,29.192,9.93499e-116,2.81551e-33,50.5257,2.23147e-12,0.0216891,62.1935
466.2,6978.0,466.8439,94.4476,-6723.07,6883.55,160.484,29.6906,1.39437e-113,1.44016e-32,51.8644,7.19187e-12,0.0361467,78.893
466.1,7090.0,466.7439,207.649,-6699.89,6882.35,182.463,30.2022,1.87065e-111,7.24838e-32,53.2568,2.27248e-11,0.0595585,98.9447
466.0,7070.0,466.6439,189.227,-6672.55,6880.77,208.219,30.727,2.39892e-109,3.58962e-31,54.7058,7.03984e-11,0.0970214,122.69
465.9,7084.0,466.544,204.794,-6641.16,6879.21,238.049,31.2657,2.94066e-107,1.74918e-30,56.2144,2.13813e-10,0.156258,150.412
465.8,7087.0,466.444,209.442,-6605.39,6877.56,272.168,31.8187,3.44572e-105,8.38682e-30,57.7859,6.36664e-10,0.248808,182.314
465.7,7168.0,466.3439,292.438,-6564.88,6875.56,310.685,32.3864,3.85942e-103,3.95674e-29,59.424,1.85863e-09,0.391684,218.483
465.6,7368.0,466.2439,495.572,-6518.85,6872.43,353.578,32.9695,4.13209e-101,1.83677e-28,61.1323,5.31966e-09,0.609616,258.867
465.5,7286.0,466.1439,417.202,-6468.13,6868.8,400.667,33.5684,4.22888e-99,8.38977e-28,62.9149,1.49273e-08,0.938052,303.246
465.4,7198.0,466.044,332.182,-6414.21,6865.82,451.604,34.1838,4.13701e-97,3.77071e-27,64.7763,4.10661e-08,1.42707,351.217
465.3,7380.0,465.944,517.561,-6356.58,6862.44,505.859,34.8163,3.86861e-95,1.66753e-26,66.7209,1.10763e-07,2.14642,402.176
465.2,7498.0,465.8439,640.165,-6295.1,6857.83,562.733,35.4665,3.45804e-93,7.25604e-26,68.7539,2.92893e-07,3.19178,455.32
465.1,7620.0,465.7439,767.765,-6230.87,6852.24,621.367,36.1351,2.95468e-91,3.10674e-25,70.8807,7.59333e-07,4.69245,509.659
465.0,7630.0,465.6439,783.936,-6165.28,6846.06,680.781,36.8227,2.41323e-89,1.30884e-24,73.1071,1.93002e-06,6.82049,564.03
464.9,7592.0,465.544,752.044,-6100.04,6839.96,739.914,37.5302,1.88405e-87,5.42558e-24,75.4393,4.80947e-06,9.80124,617.144
464.8,7639.0,465.444,805.237,-6036.07,6833.76,797.69,38.2582,1.40603e-85,2.21301e-23,77.8841,1.17501e-05,13.925,667.623
464.7,7571.0,465.3439,743.396,-5974.52,6827.6,853.079,39.0076,1.003e-83,8.88173e-23,80.4489,2.81442e-05,19.5596,714.063
464.6,7691.0,465.2439,869.812,-5916.01,6821.19,905.181,39.7792,6.83936e-82,3.50743e-22,83.1415,6.60913e-05,27.1627,755.097
464.5,7793.0,465.1439,979.165,-5860.54,6813.83,953.298,40.574,4.45795e-80,1.36288e-21,85.9705,0.000152162,37.2936,789.46
464.4,7800.0,465.044,994.012,-5808.97,6805.99,997.013,41.3928,2.77755e-78,5.21081e-21,88.9453,0.000343459,50.6228,816.052
464.3,7896.0,464.944,1098.33,-5761.42,6797.67,1036.25,42.2366,1.65423e-76,1.96033e-20,92.0759,0.000760065,67.937,834.001
464.2,7881.0,464.8439,1092.04,-5717.63,6788.96,1071.33,43.1064,9.41751e-75,7.25655e-20,95.3733,0.00164904,90.1397,842.706
464.1,7840.0,464.7439,1059.6,-5677.43,6780.4,1102.97,44.0034,5.12487e-73,2.64307e-19,98.8494,0.00350769,118.243,841.872
464.0,7846.0,464.6439,1074.09,-5639.58,6771.91,1132.33,44.9287,2.66585e-71,9.47252e-19,102.517,0.00731502,153.35,831.529
463.9,8036.0,464.544,1273.42,-5601.64,6762.58,1160.94,45.8835,1.32555e-69,3.3404e-18,106.391,0.0149561,196.626,812.025
463.8,7981.0,464.444,1228.37,-5561.97,6752.63,1190.65,46.8689,6.3003e-68,1.15907e-17,110.487,0.0299795,249.257,784.011
463.7,7937.0,464.3439,1194.01,-5519.43,6742.99,1223.56,47.8865,2.86242e-66,3.9573e-17,114.821,0.0589168,312.394,748.403
463.6,8006.0,464.2439,1272.82,-5471.3,6733.18,1261.88,48.9375,1.24312e-64,1.32943e-16,119.412,0.113517,387.086,706.333
463.5,8013.0,464.1439,1290.01,-5415.18,6722.99,1307.81,50.0235,5.16058e-63,4.39448e-16,124.282,0.214431,474.2,659.09
463.4,8202.0,464.044,1490.06,-5348.55,6711.94,1363.38,51.1461,2.04782e-61,1.42932e-15,129.452,0.397118,574.334,608.052
463.3,8033.0,463.944,1332.29,-5270.39,6700.71,1430.33,52.3068,7.76765e-60,4.57432e-15,134.947,0.721036,687.729,554.622
463.2,8180.0,463.8439,1490.51,-5179.56,6689.49,1509.93,53.5074,2.8164e-58,1.44046e-14,140.795,1.28351,814.177,500.167
463.1,8345.0,463.7439,1668.08,-5074,6676.92,1602.92,54.7499,9.76128e-57,4.46329e-14,147.026,2.23997,952.949,445.957
463.0,8481.0,463.6439,1817.94,-4953.66,6663.06,1709.4,56.0361,3.23389e-55,1.36077e-13,153.675,3.83254,1102.73,393.126
462.9,8603.0,463.544,1954.94,-4819.25,6648.06,1828.8,57.3681,1.02412e-53,4.08219e-13,160.778,6.42873,1261.59,342.635
462.8,8570.0,463.444,1937.42,-4672.65,6632.58,1959.93,58.7481,3.10014e-52,1.20497e-12,168.377,10.5719,1426.98,295.252
462.7,8738.0,463.3439,2121.57,-4515.4,6616.43,2101.04,60.1785,8.97055e-51,3.49978e-12,176.52,17.0433,1595.75,251.544
462.6,8895.0,463.244,2296.14,-4348.87,6598.86,2249.99,61.6618,2.48121e-49,1.00019e-11,185.257,26.9351,1764.26,211.883
462.5,9047.0,463.1439,2467.08,-4175.44,6579.92,2404.48,63.2005,6.56016e-48,2.81253e-11,194.647,41.7272,1928.45,176.457
462.4,9089.0,463.044,2528.95,-3997.82,6560.05,2562.23,64.7974,1.65795e-46,7.78203e-11,204.756,63.3614,2084.03,145.293
462.3,9119.0,462.944,2579.26,-3818.42,6539.74,2721.31,66.4557,4.00531e-45,2.11868e-10,215.657,94.2948,2226.63,118.279
462.2,9403.0,462.8439,2884.99,-3637.66,6518.01,2880.35,68.1783,9.24925e-44,5.67564e-10,227.434,137.514,2352.02,95.1994
462.1,9534.0,462.744,3039.55,-3455.75,6494.45,3038.7,69.9688,2.04166e-42,1.49603e-09,240.18,196.48,2456.31,75.7566
462.0,9672.0,462.6439,3202.38,-3273.05,6469.62,3196.57,71.8306,4.30791e-41,3.88013e-09,254.002,274.977,2536.15,59.6029
461.9,9885.0,462.544,3441.8,-3088.3,6443.2,3354.9,73.7677,8.68875e-40,9.90211e-09,269.021,376.835,2588.91,46.3634
461.8,10130.0,462.444,3715.27,-2899.61,6414.73,3515.12,75.7841,1.67515e-38,2.48649e-08,285.376,505.498,2612.81,35.6569
461.7,10153.0,462.3439,3768.03,-2706.27,6384.97,3678.71,77.8842,3.08714e-37,6.14361e-08,303.224,663.45,2607.03,27.1128
461.6,10180.0,462.244,3825.22,-2508.27,6354.78,3846.51,80.0728,5.43834e-36,1.49361e-07,322.747,851.514,2571.79,20.3828
461.5,10502.0,462.1439,4179.06,-2304.92,6322.94,4018.03,82.3548,9.15763e-35,3.57297e-07,344.153,1068.1,2508.27,15.1501
461.4,10433.0,462.044,4143.15,-2099.17,6289.85,4190.68,84.7357,1.47403e-33,8.41004e-07,367.683,1308.55,2418.58,11.1334
461.3,10531.0,461.944,4274.63,-1897.15,6256.37,4359.22,87.2212,2.26796e-32,1.9478e-06,393.615,1564.62,2305.67,8.08909
461.2,10749.0,461.8439,4527.64,-1705.85,6221.36,4515.51,89.8176,3.33558e-31,4.43882e-06,422.272,1824.5,2173.11,5.81076
461.1,11076.0,461.744,4892.1,-1535.02,6183.9,4648.88,92.5314,4.68936e-30,9.95335e-06,454.03,2073.23,2024.96,4.12693
461.0,11038.0,461.6439,4893.01,-1398.02,6144.99,4746.97,95.3701,6.30176e-29,2.19608e-05,489.327,2293.85,1865.52,2.8979
460.9,10891.0,461.544,4784.5,-1309.2,6106.5,4797.3,98.3411,8.09501e-28,4.76764e-05,528.675,2469.12,1699.16,2.01186
460.8,10846.0,461.444,4777.53,-1279.29,6068.47,4789.18,101.453,9.93984e-27,0.000101844,572.677,2583.58,1530.09,1.38094
460.7,10619.0,461.3439,4587.77,-1315.53,6031.23,4715.7,104.715,1.16667e-25,0.000214066,622.038,2625.79,1362.22,0.937158
460.6,10743.0,461.244,4748.9,-1418.6,5994.1,4575.5,108.136,1.30895e-24,0.000442727,677.588,2590.12,1199.03,0.628798
460.5,10471.0,461.1439,4513.74,-1583.52,5957.26,4373.74,111.728,1.4038e-23,0.000900952,740.305,2477.88,1043.42,0.417129
460.4,10215.0,461.044,4292.76,-1800.01,5922.24,4122.22,115.501,1.4391e-22,0.00180403,811.335,2297.4,897.713,0.273584
460.3,9886.0,460.944,3996.73,-2050.97,5889.27,3838.3,119.468,1.41022e-21,0.00355439,892.023,2063.02,763.6,0.177407
460.2,9496.0,460.8439,3637.09,-2315.9,5858.91,3543.01,123.643,1.32095e-20,0.00689069,983.935,1793.15,642.16,0.11374
460.1,9216.0,460.744,3385.02,-2572.32,5830.98,3258.66,128.041,1.18276e-19,0.0131443,1088.88,1507.75,533.912,0.0720966
460.0,8916.0,460.6439,3110.85,-2798.85,5805.15,3006.3,132.676,1.0123e-18,0.0246712,1208.9,1225.77,438.88,0.0451833
459.9,8706.0,460.544,2924.85,-2977.49,5781.15,2803.66,137.568,8.28191e-18,0.0455639,1346.29,963.055,356.673,0.0279964
459.8,8555.0,460.444,2796.61,-3094.63,5758.39,2663.76,142.735,6.47676e-17,0.0827995,1503.44,730.909,286.579,0.0171509
459.7,8551.0,460.3439,2814.92,-3141.69,5736.08,2594.39,148.197,4.84163e-16,0.148051,1682.75,535.636,227.65,0.010388
459.6,8500.0,460.244,2786.2,-3115.66,5713.8,2598.14,153.979,3.45965e-15,0.26048,1886.22,378.889,178.789,0.00622069
459.5,8640.0,460.1439,2949.01,-3018.06,5690.99,2672.93,160.105,2.36308e-14,0.450936,2114.94,258.61,138.823,0.00368304
459.4,8681.0,460.044,3013.72,-2854.86,5667.28,2812.42,166.602,1.54288e-13,0.768125,2368.21,170.27,106.57,0.00215593
459.3,8870.0,459.944,3227.54,-2636.41,5642.46,3006.05,173.503,9.62923e-13,1.28744,2642.26,108.111,80.8823,0.00124774
459.2,9168.0,459.8439,3552.51,-2376.85,5615.49,3238.64,180.84,5.74458e-12,2.12324,2928.81,66.1804,60.6908,0.000713957
459.1,9448.0,459.744,3861.99,-2096.24,5586.01,3489.77,188.651,3.2759e-11,3.44546,3213.6,39.0501,45.0237,0.000403908
459.0,9733.0,459.6439,4178.97,-1820.34,5554.03,3733.69,196.977,1.78571e-10,5.50141,3475.98,22.2053,33.0225,0.00022592
458.9,9891.0,459.544,4370.97,-1578.94,5520.03,3941.09,205.865,9.30457e-10,8.64328,3690.47,12.1661,23.9456,0.000124935
458.8,9910.0,459.444,4424.95,-1401.57,5485.05,4083.48,215.366,4.63435e-09,13.3616,3831.16,6.42145,17.1669,6.83091e-05
458.7,9982.0,459.3439,4532.58,-1309.69,5449.42,4139.73,225.537,2.20642e-08,20.3245,3878.43,3.26462,12.1677,3.6926e-05
458.6,10063.0,459.244,4650.1,-1310.71,5412.9,4102.19,236.441,1.00414e-07,30.4197,3825.21,1.59841,8.52653,1.97354e-05
458.5,9900.0,459.1439,4523.58,-1397.37,5376.42,3979.05,248.151,4.36823e-07,44.7991,3679.44,0.753605,5.90726,1.04285e-05
458.4,9466.0,459.044,4123.97,-1550.65,5342.03,3791.38,260.746,1.81645e-06,64.9173,3461.32,0.342096,4.04622,5.44826e-06
458.3,9112.0,458.944,3801.49,-1743.83,5310.51,3566.68,274.316,7.2202e-06,92.5612,3196.91,0.149504,2.74007,2.8142e-06
458.2,9053.0,458.8439,3772.61,-1948.18,5280.39,3332.21,288.963,2.74335e-05,129.86,2911.49,0.0628952,1.83452,1.43718e-06
458.1,8733.0,458.744,3481.46,-2140.88,5251.54,3110.66,304.801,9.96366e-05,179.266,2625.36,0.0254683,1.21432,7.25655e-07
458.0,8393.0,458.6439,3167.9,-2306.46,5225.1,2918.63,321.96,0.00034591,243.5,2352.37,0.00992579,0.79468,3.62251e-07
457.9,8274.0,458.544,3073.73,-2433.22,5200.27,2767.05,340.584,0.00114793,325.445,2100.51,0.00372288,0.514164,1.78793e-07
457.8,8215.0,458.444,3039.04,-2513.5,5175.96,2662.46,360.842,0.00364144,427.989,1873.3,0.00134372,0.328897,8.7247e-08
457.7,8066.0,458.3439,2913.71,-2544.01,5152.29,2608.28,382.92,0.0110417,553.817,1671.32,0.000466692,0.208002,4.20932e-08
457.6,8173.0,458.244,3044.41,-2522.84,5128.59,2605.75,407.035,0.0320043,705.142,1493.41,0.00015596,0.130054,2.00786e-08
457.5,8304.0,458.1439,3200.24,-2449.23,5103.76,2654.53,433.432,0.0886717,883.414,1337.51,5.0146e-05,0.080395,9.46929e-09
457.4,8384.0,458.044,3306.12,-2324.97,5077.88,2752.92,462.393,0.234838,1089,1201.24,1.55122e-05,0.0491342,4.41531e-09
457.3,8573.0,457.944,3522.27,-2152.78,5050.73,2897.95,494.242,0.59451,1320.91,1082.18,4.61645e-06,0.0296885,2.03548e-09
457.2,8842.0,457.8439,3820.47,-1936.15,5021.53,3085.37,529.351,1.43865,1576.49,978.072,1.32165e-06,0.0177354,9.27752e-10
457.1,8984.0,457.744,3993.55,-1680.72,4990.45,3309.73,568.153,3.32782,1851.36,886.882,3.63985e-07,0.0104747,4.18079e-10
457.0,9260.0,457.6439,4302.54,-1392.86,4957.46,3564.6,611.149,7.35817,2139.27,806.815,9.64254e-08,0.00611639,1.86271e-10
456.9,9655.0,457.544,4733.48,-1078.42,4921.52,3843.1,658.925,15.552,2432.3,736.32,2.45711e-08,0.00353098,8.20528e-11
456.8,9879.0,457.444,4996.17,-744.059,4882.83,4138.77,712.168,31.4202,2721.12,674.064,6.02236e-09,0.00201533,3.57357e-11
456.7,10208.0,457.3439,5366.38,-394.942,4841.62,4446.67,771.689,60.6791,2995.4,618.91,1.41973e-09,0.00113722,1.53876e-11
456.6,10603.0,457.244,5805.81,-32.3947,4797.19,4764.79,838.45,112.015,3244.43,569.893,3.21906e-10,0.000634444,6.55092e-12
456.5,11010.0,457.1439,6260.8,346.065,4749.2,5095.26,913.607,197.659,3457.81,526.189,7.01979e-11,0.000349938,2.75736e-12
456.4,11447.0,457.044,6749.54,747.696,4697.46,5445.15,998.549,333.401,3626.1,487.1,1.47224e-11,0.000190826,1.14748e-12
456.3,11719.0,456.944,7076.53,1183.68,4642.47,5826.15,1094.97,537.554,3741.6,452.029,2.96951e-12,0.000102881,4.72126e-13
456.2,12050.0,456.8439,7465.36,1668.1,4584.64,6252.74,1204.95,828.485,3798.84,420.469,5.76011e-13,5.48376e-05,1.92058e-13
456.1,12470.0,456.744,7946.65,2215.34,4523.35,6738.69,1331.06,1220.54,3795.1,391.986,1.0745e-13,2.88984e-05,7.72443e-14
456.0,12678.0,456.6439,8218.94,2833.04,4459.06,7292.1,1476.54,1718.81,3730.54,366.206,1.92755e-14,1.50562e-05,3.07158e-14
455.9,13115.0,456.544,8723.32,3518.57,4391.68,7910.25,1645.46,2313.72,3608.26,342.811,3.32519e-15,7.75549e-06,1.20758e-14
455.8,13541.0,456.444,9220.68,4255.41,4320.32,8575.72,1843.05,2977.14,3434.01,321.524,5.51612e-16,3.94958e-06,4.69391e-15
455.7,13753.0,456.3439,9507.16,5009.83,4245.84,9255.67,2076.01,3661.79,3215.76,302.108,8.79932e-17,1.98858e-06,1.8039e-15
455.6,14115.0,456.244,9946.53,5737.21,4168.47,9905.69,2353.04,4305.22,2963.07,284.354,1.34976e-17,9.8988e-07,6.8541e-16
455.5,14423.0,456.1439,10335.2,6390.55,4087.81,10478.4,2685.42,4838.41,2686.45,268.084,1.99088e-18,4.87161e-07,2.57484e-16
455.4,14543.0,456.044,10538.2,6930.34,4004.8,10935.1,3087.65,5197.77,2396.58,253.14,2.82372e-19,2.37034e-07,9.56334e-17
455.3,15078.0,455.944,11159.5,7339.99,3918.51,11258.5,3577.91,5337.51,2103.69,239.386,3.85083e-20,1.14025e-07,3.51181e-17
455.2,15381.0,455.8439,11552.8,7632.35,3828.18,11460.5,4177.64,5239.21,1816.98,226.701,5.0496e-21,5.42295e-08,1.27501e-17
455.1,15435.0,455.744,11699.3,7847.77,3735.71,11583.5,4908.46,4915.86,1544.18,214.98,6.36862e-22,2.54989e-08,4.57672e-18
455.0,15559.0,455.6439,11917.2,8045.78,3641.79,11687.6,5783.16,4409,1291.28,204.128,7.7254e-23,1.18538e-08,1.62427e-18
454.9,15499.0,455.544,11952.1,8275.43,3546.86,11822.3,6785.79,3779.96,1062.48,194.064,9.01602e-24,5.44807e-09,5.6993e-19
454.8,15217.0,455.444,11764.5,8529.55,3452.55,11982.1,7839.47,3097.71,860.197,184.715,1.00963e-24,2.47558e-09,1.97718e-19
454.7,15149.0,455.3439,11790.1,8705.32,3358.87,12064.2,8776.3,2426.62,685.257,176.015,1.07846e-25,1.11214e-09,6.7816e-20
454.6,14754.0,455.244,11487.7,8605.52,3266.3,11871.8,9349.71,1817.05,537.139,167.906,1.05036e-26,4.9396e-10,2.29974e-20
454.5,14455.0,455.1439,11279.2,8027.3,3175.75,11203.1,9327.84,1300.59,414.282,160.338,1.11438e-27,2.16907e-10,7.71056e-21
454.4,13801.0,455.044,10712.7,6903.85,3088.29,9992.14,8634.62,889.858,314.401,153.263,1.73872e-28,9.4168e-11,2.55596e-21
454.3,12877.0,454.944,9870.57,5376.59,3006.43,8383.03,7419.63,581.979,234.774,146.641,0.0,4.04188e-11,8.37689e-22
454.2,11183.0,454.8439,8248.62,3719.95,2934.38,6654.33,5977.56,363.831,172.501,140.433,0.0,1.71519e-11,2.71439e-22
454.1,8969.0,454.744,6091.65,2188.4,2877.35,5065.75,4589.01,217.42,124.713,134.607,0.0,7.19599e-12,8.69607e-23
454.0,6979.0,454.6439,4142.35,922.598,2836.65,3759.24,3417.2,124.195,88.7174,129.132,0.0,2.98482e-12,2.75444e-23
453.9,5409.0,454.544,2599.17,-50.1698,2809.83,2759.66,2505.77,67.8137,62.0988,123.981,0.0,1.22404e-12,8.62593e-24
453.8,4538.0,454.444,1745.44,-766.739,2792.56,2025.82,1828.52,35.3945,42.7696,119.129,0.0,4.96273e-13,2.67079e-24
453.7,4077.0,454.3439,1296.54,-1283.33,2780.46,1497.13,1335.93,17.6588,28.9844,114.554,0.0,1.98928e-13,8.17584e-25
453.6,3629.0,454.244,857.106,-1653.92,2771.89,1117.97,979.987,8.42158,19.3273,110.235,0.0,7.88351e-14,2.4745e-25
453.5,3429.0,454.1439,663.152,-1920.78,2765.85,845.067,722.394,3.83912,12.6811,106.153,0.0,3.08882e-14,7.40461e-26
453.4,3386.0,454.044,625.276,-2113.57,2760.72,647.151,535,1.67293,8.18686,102.292,0.0,1.19651e-14,2.19068e-26
453.3,3255.0,453.944,498.746,-2253.93,2756.25,502.32,397.787,0.696832,5.20064,98.6356,0.0,4.58234e-15,6.40789e-27
453.2,3237.0,453.8439,484.657,-2356.97,2752.34,395.37,296.671,0.277451,3.25067,95.1705,0.0,1.73503e-15,1.85316e-27
453.1,3142.0,453.744,393.148,-2433.14,2748.85,315.716,221.728,0.105597,1.99925,91.8834,0.0,6.49499e-16,5.29872e-28
453.0,3011.0,453.6439,264.765,-2490.31,2746.24,255.93,165.919,0.0384169,1.20987,88.7625,0.0,2.4038e-16,1.49793e-28
452.9,3076.0,453.544,332.139,-2533.12,2743.86,210.737,124.206,0.0133598,0.720422,85.7968,0.0,8.79561e-17,4.18669e-29
452.8,3039.0,453.444,297.643,-2565.01,2741.36,176.349,92.9466,0.00444103,0.422098,82.9762,0.0,3.18188e-17,1.15694e-29
452.7,3028.0,453.3439,288.976,-2589,2739.02,150.019,69.4828,0.00141115,0.243342,80.2915,0.0,1.13802e-17,3.16092e-30
452.6,3016.0,453.244,279.236,-2607.03,2736.76,129.73,51.8575,0.000428619,0.138038,77.7341,0.0,4.02408e-18,8.53838e-31
452.5,2913.0,453.1439,178.055,-2620.95,2734.95,113.993,38.6193,0.000124444,0.0770471,75.2962,0.0,1.4068e-18,2.28034e-31
452.4,2932.0,453.044,198.552,-2631.75,2733.45,101.698,28.6846,3.45371e-05,0.0423148,72.9706,0.0,4.86235e-19,6.0212e-32
452.3,2938.0,452.944,206.162,-2639.82,2731.84,92.0134,21.2402,9.16226e-06,0.0228668,70.7504,0.0,1.66154e-19,1.57191e-32
452.2,2911.0,452.8439,180.7,-2645.98,2730.3,84.3151,15.6736,2.32341e-06,0.0121589,68.6294,0.0,5.61336e-20,4.05727e-33
452.1,2909.0,452.744,180.135,-2650.73,2728.86,78.1302,11.522,5.63191e-07,0.00636157,66.6018,0.0,1.87493e-20,1.03538e-33
452.0,2859.0,452.6439,131.374,-2654.52,2727.63,73.1009,8.43539,1.30494e-07,0.00327499,64.6623,0.0,6.19151e-21,2.61233e-34
451.9,2879.0,452.544,152.503,-2657.54,2726.5,68.9561,6.14863,2.89025e-08,0.00165895,62.8058,0.0,2.02142e-21,6.51651e-35
451.8,2796.0,452.444,70.3896,-2660.12,2725.61,65.4896,4.46106,6.11906e-09,0.000826861,61.0278,0.0,6.52479e-22,1.60718e-35
451.7,2837.0,452.3439,112.115,-2662.34,2724.88,62.5451,3.22095,1.23834e-09,0.000405518,59.3238,0.0,2.08221e-22,3.91899e-36
451.6,2899.0,452.244,175.258,-2663.74,2723.74,60.0038,2.31381,2.39554e-10,0.000195688,57.6898,0.0,6.56952e-23,9.4481e-37
451.5,2903.0,452.1439,180.674,-2664.55,2722.33,57.7756,1.65343,4.42968e-11,9.29176e-05,56.1221,0.0,2.04923e-23,2.25204e-37
451.4,2770.0,452.044,48.5855,-2665.62,2721.41,55.7923,1.17512,7.82974e-12,4.34118e-05,54.6172,0.0,6.31971e-24,5.30723e-38
451.3,2867.0,451.944,146.361,-2666.64,2720.64,54.0022,0.830518,1.32291e-12,1.9957e-05,53.1717,0.0,1.92687e-24,1.23658e-38
451.2,2824.0,451.8439,104.358,-2667.28,2719.64,52.3662,0.583609,2.13658e-13,9.02734e-06,51.7826,0.0,5.80841e-25,2.84862e-39
451.1,2771.0,451.744,51.9797,-2668.17,2719.02,50.8547,0.407702,3.29848e-14,4.01793e-06,50.447,0.0,1.73106e-25,6.48797e-40
451.0,2787.0,451.6439,68.4586,-2669.1,2718.54,49.4453,0.283111,4.8676e-15,1.75963e-06,49.1622,0.0,5.10052e-26,1.46098e-40
450.9,2882.0,451.544,164.385,-2669.49,2717.62,48.121,0.195395,6.86631e-16,7.5826e-07,47.9256,0.0,1.48582e-26,3.25267e-41
450.8,2807.0,451.444,90.3979,-2669.73,2716.6,46.869,0.13402,9.25844e-17,3.21509e-07,46.735,0.0,4.27926e-27,7.15974e-42
450.7,2777.0,451.3439,61.0,-2670.32,2716.0,45.6793,0.091344,1.19333e-17,1.34136e-07,45.588,0.0,1.21848e-27,1.55817e-42
450.6,2716.0,451.244,0.0,-2671.46,2716.0,44.5444,0.0618592,1.47024e-18,5.50647e-08,44.4825,0.0,3.4302e-28,3.35269e-43
450.5,2741.0,451.1439,25.0,-2672.54,2716.0,43.4583,0.0416204,1.7315e-19,2.22423e-08,43.4167,0.0,9.54703e-29,7.13235e-44
450.4,2842.0,451.044,126.0,-2673.58,2716.0,42.4164,0.0278195,1.94923e-20,8.84024e-09,42.3885,0.0,2.62704e-29,1.50014e-44
450.3,2761.0,450.944,45.0,-2674.59,2716.0,41.4148,0.0184716,2.09754e-21,3.45721e-09,41.3963,0.0,7.14684e-30,3.11956e-45
450.2,2815.0,450.8439,99.0,-2675.55,2716.0,40.4507,0.0121825,2.15756e-22,1.33035e-09,40.4385,0.0,1.92225e-30,6.4138e-46
450.1,2808.0,450.744,92.0,-2676.48,2716.0,39.5213,0.00798037,2.12141e-23,5.0371e-10,39.5134,0.0,5.1116e-31,1.30376e-46
450.0,2796.0,450.6439,80.0,-2677.38,2716.0,38.6247,0.00519197,1.99384e-24,1.87661e-10,38.6195,0.0,1.34385e-31,2.62024e-47