File: XPS/LG4X-result/MX-UT-0.5-Ti2p.csv
#No of rows lightened (2D detector)1(if not using 2D detector, value is 1 and can be ignored!)
raw_x,raw_y,corrected x,data-bg,sum_components,bg,sum_fit,TiC,Ti 2+,Ti 3+,Ti 4+,TiC (2p1/2),Ti 2+ (2p1/2)
467.5,15775.0,467.9195,456.0,-15246.5,15319.0,72.5032,2.56834e-177,5.77541e-89,9.86492e-130,72.4973,9.45279e-31,0.0059297
467.4,15599.0,467.8195,280.0,-15245,15319.0,74.0081,1.6119e-174,2.07142e-87,2.92731e-127,73.9988,8.74413e-30,0.00927243
467.3,15498.0,467.7195,179.0,-15243.4,15319.0,75.5614,9.61973e-172,7.20684e-86,8.23304e-125,75.547,7.82963e-29,0.0143897
467.2,15558.0,467.62,239.0,-15241.8,15319.0,77.1659,5.45918e-169,2.43227e-84,2.19465e-122,77.1438,6.78631e-28,0.0221621
467.1,15670.0,467.52,351.0,-15240.2,15319.0,78.825,2.94599e-166,7.96285e-83,5.54482e-120,78.7911,5.69367e-27,0.033874
467.0,15555.0,467.4195,236.0,-15238.5,15319.0,80.5426,1.51174e-163,2.52881e-81,1.32778e-117,80.4912,4.62397e-26,0.0513831
466.9,15565.0,467.3195,246.0,-15236.7,15319.0,82.3237,7.37667e-161,7.7903e-80,3.01354e-115,82.2463,3.63498e-25,0.0773523
466.8,15433.0,467.2195,114.0,-15234.8,15319.0,84.1743,3.42284e-158,2.328e-78,6.48253e-113,84.0588,2.766e-24,0.115564
466.7,15466.0,467.12,147.0,-15232.9,15319.0,86.1024,1.51027e-155,6.74843e-77,1.32168e-110,85.9311,2.03734e-23,0.171346
466.6,15532.0,467.02,213.0,-15230.9,15319.0,88.118,6.33668e-153,1.89763e-75,2.55403e-108,87.8658,1.45256e-22,0.252128
466.5,15514.0,466.9195,195.0,-15228.8,15319.0,90.234,2.52821e-150,5.17622e-74,4.67778e-106,89.8659,1.00245e-21,0.368185
466.4,15437.0,466.8195,118.0,-15226.5,15319.0,92.4677,9.59191e-148,1.36963e-72,8.12024e-104,91.9341,6.69657e-21,0.533593
466.3,15371.0,466.7195,52.0,-15224.2,15319.0,94.841,3.46051e-145,3.51549e-71,1.33602e-101,94.0735,4.33009e-20,0.767454
466.2,15530.0,466.62,211.0,-15221.6,15319.0,97.383,1.18719e-142,8.75302e-70,2.0834e-99,96.2876,2.71017e-19,1.09545
466.1,15476.0,466.52,157.0,-15218.9,15319.0,100.131,3.87294e-140,2.11408e-68,3.07927e-97,98.5796,1.64191e-18,1.55178
466.0,15522.0,466.4195,203.0,-15215.9,15319.0,103.135,1.20145e-137,4.95306e-67,4.31359e-95,100.953,9.62846e-18,2.18157
465.9,15389.0,466.3195,70.0,-15212.5,15319.0,106.456,3.54419e-135,1.12569e-65,5.72723e-93,103.412,5.46531e-17,3.04372
465.8,15490.0,466.2195,171.0,-15208.8,15319.0,110.176,9.94197e-133,2.48172e-64,7.20718e-91,105.961,3.00278e-16,4.21442
465.7,15575.0,466.12,256.0,-15204.6,15319.0,114.395,2.65199e-130,5.30734e-63,8.59611e-89,108.604,1.59691e-15,5.79122
465.6,15466.0,466.02,147.0,-15199.8,15319.0,119.243,6.72695e-128,1.10101e-61,9.71749e-87,111.345,8.22027e-15,7.89769
465.5,15541.0,465.9195,222.0,-15194.1,15319.0,124.879,1.6226e-125,2.21564e-60,1.04117e-84,114.19,4.09579e-14,10.6888
465.4,15319.0,465.8195,0.0,-15187.5,15319.0,131.5,3.72176e-123,4.32509e-59,1.05731e-82,117.143,1.97531e-13,14.3567
465.3,15556.0,465.7195,237.902,-15178.8,15318.1,139.348,8.11771e-121,8.18997e-58,1.01766e-80,120.21,9.22096e-13,19.1373
465.2,15413.0,465.62,96.1679,-15168.1,15316.8,148.714,1.68371e-118,1.50439e-56,9.28357e-79,123.398,4.16639e-12,25.3166
465.1,15460.0,465.52,144.078,-15156,15315.9,159.948,3.32083e-116,2.68058e-55,8.02682e-77,126.711,1.82216e-11,33.2374
465.0,15581.0,465.4195,266.635,-15140.9,15314.4,173.463,6.2284e-114,4.63327e-54,6.5779e-75,130.157,7.71349e-11,43.3059
464.9,15413.0,465.3195,100.025,-15123.2,15313,189.74,1.11085e-111,7.76849e-53,5.10913e-73,133.743,3.1605e-10,55.997
464.8,15460.0,465.2195,147.965,-15102.7,15312,209.336,1.884e-109,1.2635e-51,3.76116e-71,137.477,1.25342e-09,71.8591
464.7,15645.0,465.12,334.795,-15077.3,15310.2,232.881,3.0385e-107,1.99346e-50,2.62429e-69,141.365,4.81146e-09,91.516
464.6,15718.0,465.02,410.62,-15046.3,15307.4,261.085,4.66002e-105,3.0509e-49,1.73547e-67,145.418,1.78769e-08,115.667
464.5,15836.0,464.9195,532.193,-15009.1,15303.8,294.728,6.79621e-103,4.52939e-48,1.08777e-65,149.643,6.42894e-08,145.085
464.4,15505.0,464.8195,203.984,-14966.4,15301,334.657,9.42535e-101,6.52292e-47,6.4621e-64,154.051,2.2378e-07,180.606
464.3,15527.0,464.7195,227.62,-14917.6,15299.4,381.773,1.24303e-98,9.11244e-46,3.63852e-62,158.653,7.53933e-07,223.121
464.2,15941.0,464.62,644.927,-14859.1,15296.1,437.014,1.5589e-96,1.23486e-44,1.94174e-60,163.458,2.45853e-06,273.556
464.1,15977.0,464.52,685.971,-14789.7,15291,501.332,1.85912e-94,1.62327e-43,9.82141e-59,168.48,7.75973e-06,332.852
464.0,15995.0,464.4195,709.259,-14710.1,15285.7,575.665,2.10839e-92,2.06993e-42,4.70838e-57,173.731,2.37053e-05,401.934
463.9,16029.0,464.3195,748.786,-14619.3,15280.2,660.902,2.27378e-90,2.56042e-41,2.13936e-55,179.225,7.00926e-05,481.677
463.8,16033.0,464.2195,758.499,-14516.7,15274.5,757.846,2.33186e-88,3.07225e-40,9.21324e-54,184.977,0.000200597,572.869
463.7,16293.0,464.12,1025.26,-14400.6,15267.7,867.168,2.27412e-86,3.57596e-39,3.76059e-52,191.002,0.000555647,676.166
463.6,16329.0,464.02,1069.2,-14270.4,15259.8,989.364,2.10902e-84,4.03756e-38,1.45484e-50,197.317,0.00148969,792.045
463.5,16472.0,463.9195,1220.88,-14126.4,15251.1,1124.7,1.85996e-82,4.42218e-37,5.33444e-49,203.942,0.0038656,920.756
463.4,16614.0,463.8195,1372.71,-13968.1,15241.3,1273.18,1.55986e-80,4.69834e-36,1.85387e-47,210.895,0.00970862,1062.28
463.3,16601.0,463.7195,1370.1,-13796.4,15230.9,1434.49,1.24402e-78,4.8422e-35,6.10638e-46,218.198,0.0236003,1216.27
463.2,16704.0,463.62,1483.92,-13612.1,15220.1,1607.96,9.43474e-77,4.84096e-34,1.90636e-44,225.874,0.0555258,1382.03
463.1,16714.0,463.52,1505.25,-13416.2,15208.7,1792.57,6.80443e-75,4.69473e-33,5.64078e-43,233.949,0.126442,1558.5
463.0,17055.0,463.4195,1859,-13209.1,15196,1986.91,4.66676e-73,4.41653e-32,1.58194e-41,242.448,0.278676,1744.18
462.9,17363.0,463.3195,2182.32,-12991.5,15180.7,2189.2,3.04369e-71,4.03034e-31,4.20491e-40,251.4,0.594464,1937.21
462.8,17496.0,463.2195,2332.43,-12766.2,15163.6,2397.37,1.88777e-69,3.56773e-30,1.05935e-38,260.839,1.22734,2135.3
462.7,17588.0,463.12,2442.53,-12536.4,15145.5,2609.07,1.11343e-67,3.06361e-29,2.52951e-37,270.796,2.45253,2335.82
462.6,18012.0,463.019,2886.73,-12303.4,15125.3,2821.88,6.24509e-66,2.55192e-28,5.72464e-36,281.31,4.74326,2535.83
462.5,18049.0,462.9195,2945.84,-12069.8,15103.2,3033.4,3.33105e-64,2.062e-27,1.22794e-34,292.42,8.87869,2732.1
462.4,18411.0,462.82,3331.63,-11837.8,15079.4,3241.53,1.68963e-62,1.61623e-26,2.49643e-33,304.171,16.0853,2921.28
462.3,18657.0,462.7195,3603.92,-11608.4,15053.1,3444.71,8.15018e-61,1.22887e-25,4.81036e-32,316.608,28.2045,3099.9
462.2,18532.0,462.62,3505.86,-11384,15026.1,3642.17,3.73863e-59,9.0636e-25,8.78519e-31,329.785,47.8645,3264.52
462.1,18916.0,462.519,3918,-11163.8,14998,3834.23,1.6309e-57,6.48464e-24,1.52069e-29,343.756,78.6167,3411.85
462.0,19038.0,462.4195,4070.28,-10945.3,14967.7,4022.38,6.76571e-56,4.5005e-23,2.49485e-28,358.583,124.974,3538.83
461.9,19234.0,462.32,4298,-10726.7,14936,4209.34,2.66913e-54,3.02989e-22,3.8794e-27,374.331,192.278,3642.73
461.8,19406.0,462.2195,4503.36,-10504,14902.6,4398.67,1.00138e-52,1.97872e-21,5.71741e-26,391.074,286.312,3721.28
461.7,19295.0,462.12,4426.2,-10274.5,14868.8,4594.25,3.57276e-51,1.25352e-20,7.98638e-25,408.891,412.622,3772.74
461.6,19673.0,462.019,4839.32,-10034.4,14833.7,4799.33,1.21222e-49,7.70316e-20,1.05734e-23,427.866,575.527,3795.93
461.5,19888.0,461.9195,5091.96,-9780.67,14796,5015.37,3.91145e-48,4.59195e-19,1.32678e-22,448.094,776.922,3790.35
461.4,20075.0,461.82,5318.42,-9515.74,14756.6,5240.83,1.20025e-46,2.65531e-18,1.57795e-21,469.676,1015.05,3756.11
461.3,20153.0,461.7195,5437.19,-9245.61,14715.8,5470.21,3.50253e-45,1.48945e-17,1.77871e-20,492.724,1283.5,3693.99
461.2,20247.0,461.62,5572.92,-8980.63,14674.1,5693.45,9.72015e-44,8.10448e-17,1.90035e-19,517.359,1570.72,3605.38
461.1,20497.0,461.519,5866.27,-8734.41,14630.7,5896.31,2.56534e-42,4.27776e-16,1.92431e-18,543.711,1860.36,3492.24
461.0,20689.0,461.4195,6103.64,-8523.89,14585.4,6061.47,6.43873e-41,2.19027e-15,1.84686e-17,571.923,2132.5,3357.04
460.9,20789.0,461.32,6250.47,-8367.97,14538.5,6170.57,1.53688e-39,1.08785e-14,1.67999e-16,602.15,2365.78,3202.63
460.8,20709.0,461.2195,6217.73,-8284.42,14491.3,6206.86,3.4887e-38,5.2412e-14,1.44842e-15,634.557,2540.11,3032.19
460.7,20471.0,461.12,6026.13,-8286.97,14444.9,6157.9,7.53139e-37,2.44953e-13,1.18359e-14,669.325,2639.51,2849.07
460.6,20324.0,461.019,5924.43,-8381.7,14399.6,6017.87,1.54623e-35,1.11052e-12,9.16683e-14,706.644,2654.5,2656.73
460.5,20062.0,460.9195,5706.51,-8566.51,14355.5,5788.98,3.01901e-34,4.88383e-12,6.72905e-13,746.719,2583.64,2458.62
460.4,20044.0,460.82,5731.87,-8830.61,14312.1,5481.52,5.60592e-33,2.08346e-11,4.68171e-12,789.765,2433.71,2258.05
460.3,19451.0,460.7195,5180.23,-9157.96,14270.8,5112.82,9.89969e-32,8.62185e-11,3.08723e-11,836.006,2218.68,2058.13
460.2,18988.0,460.62,4754.88,-9528.22,14233.1,4704.9,1.66261e-30,3.46103e-10,1.92952e-10,885.674,1957.52,1861.71
460.1,18407.0,460.519,4207.85,-9917.38,14199.1,4281.77,2.65557e-29,1.34773e-09,1.143e-09,939.003,1671.49,1671.28
460.0,18005.0,460.4195,3836.34,-10302.2,14168.7,3866.48,4.03389e-28,5.09083e-09,6.41738e-09,996.224,1381.29,1488.96
459.9,17731.0,460.32,3590.49,-10661.7,14140.5,3478.76,5.82759e-27,1.86537e-08,3.41495e-08,1057.56,1104.72,1316.49
459.8,17235.0,460.2195,3119.93,-10981.6,14115.1,3133.44,8.00677e-26,6.6303e-08,1.72237e-07,1123.19,855.069,1155.18
459.7,16738.0,460.12,2644.78,-11253.5,14093.2,2839.77,1.04624e-24,2.28608e-07,8.2335e-07,1193.29,640.52,1005.96
459.6,16532.0,460.019,2458.12,-11472.2,14073.9,2601.68,1.3002e-23,7.64611e-07,3.73042e-06,1267.95,464.35,869.375
459.5,16505.0,459.9195,2449.72,-11636.6,14055.3,2418.64,1.53672e-22,2.48073e-06,1.60194e-05,1347.2,325.791,745.647
459.4,16408.0,459.82,2370.99,-11750.2,14037,2286.83,1.7274e-21,7.80747e-06,6.52003e-05,1430.93,221.214,634.685
459.3,16305.0,459.7195,2285.64,-11818.9,14019.4,2200.42,1.84673e-20,2.38358e-05,0.000251518,1518.91,145.367,536.144
459.2,16165.0,459.62,2162.5,-11849.9,14002.5,2152.63,1.87772e-19,7.05898e-05,0.000919608,1610.71,92.4477,449.472
459.1,16169.0,459.519,2182.97,-11849.5,13986,2136.54,1.81582e-18,0.000202789,0.00318678,1705.68,56.8989,373.958
459.0,16205.0,459.4195,2235.72,-11823.7,13969.3,2145.56,1.67008e-17,0.000565113,0.0104669,1802.89,33.8913,308.774
458.9,16041.0,459.32,2088.11,-11779.2,13952.9,2173.7,1.46091e-16,0.00152763,0.0325835,1901.1,19.5366,253.021
458.8,16050.0,459.2195,2113.03,-11721.4,13937,2215.52,1.21544e-15,0.00400582,0.0961376,1998.76,10.8989,205.765
458.7,16257.0,459.12,2336.9,-11653.9,13920.1,2266.18,9.61772e-15,0.0101896,0.268847,2093.95,5.88429,166.067
458.6,16004.0,459.019,2100.71,-11582,13903.3,2321.29,7.23838e-14,0.0251426,0.712576,2184.47,3.07452,133.014
458.5,16193.0,458.9195,2306.42,-11509.6,13886.6,2377,5.18136e-13,0.0601804,1.79008,2267.86,1.55465,105.732
458.4,16354.0,458.82,2485.58,-11438.3,13868.4,2430.12,3.52763e-12,0.13973,4.26216,2341.55,0.760785,83.4091
458.3,16139.0,458.7195,2288.68,-11371.7,13850.3,2478.6,2.28434e-11,0.314714,9.61839,2403,0.360298,65.3009
458.2,16283.0,458.62,2450.64,-11310.3,13832.4,2522.06,1.40696e-10,0.687596,20.5726,2449.9,0.165132,50.7369
458.1,16365.0,458.519,2551.6,-11250.7,13813.4,2562.7,8.24228e-10,1.45727,41.7055,2480.34,0.0732441,39.1225
458.0,16574.0,458.4195,2780.81,-11187,13793.2,2606.14,4.59264e-09,2.99598,80.1331,2493.05,0.03144,29.9383
457.9,16465.0,458.32,2692.56,-11110.3,13772.4,2662.11,2.43405e-08,5.97484,145.93,2487.46,0.0130605,22.7367
457.8,16574.0,458.2195,2822.46,-11007.1,13751.5,2744.4,1.22703e-07,11.5586,251.881,2463.82,0.00525058,17.1366
457.7,16615.0,458.12,2885.09,-10860.2,13729.9,2869.71,5.88351e-07,21.6908,412.059,2423.14,0.00204278,12.818
457.6,17010.0,458.019,3303.55,-10651.4,13706.5,3055.02,2.68339e-06,39.4853,638.91,2367.11,0.000769132,9.51513
457.5,17063.0,457.9195,3381.89,-10367.5,13681.1,3313.56,1.16412e-05,69.7245,938.933,2297.9,0.000280251,7.00982
457.4,17191.0,457.82,3536.11,-10004.5,13654.9,3650.35,4.80377e-05,119.434,1307.81,2217.98,9.88233e-05,5.12505
457.3,17873.0,457.7195,4247.61,-9566.76,13625.4,4058.63,0.000188557,198.453,1726.52,2129.94,3.37238e-05,3.71866
457.2,18029.0,457.62,4436.53,-9073.33,13592.5,4519.14,0.000704018,319.875,2160.29,2036.29,1.11372e-05,2.67778
457.1,18433.0,457.519,4875.82,-8553.82,13557.2,5003.35,0.00250039,500.142,2561.94,1939.35,3.55944e-06,1.91364
457.0,18966.0,457.4195,5447.95,-8037.3,13518,5480.75,0.00844738,758.572,2879.66,1841.15,1.1009e-06,1.3572
456.9,19283.0,457.32,5807.61,-7547.14,13475.4,5928.24,0.0271474,1116.07,3067.81,1743.38,3.29518e-07,0.955271
456.8,19552.0,457.2195,6121.83,-7091.51,13430.2,6338.66,0.0829915,1592.85,3097.64,1647.41,9.54488e-08,0.667278
456.7,20163.0,457.12,6781.74,-6656.58,13381.3,6724.69,0.241347,2205.21,2964.49,1554.29,2.67561e-08,0.462579
456.6,20730.0,457.019,7402.5,-6211.29,13327.5,7116.22,0.667666,2961.53,2688.95,1464.75,7.25833e-09,0.318246
456.5,20878.0,456.9195,7607.39,-5719.52,13270.6,7551.09,1.75707,3858.08,2311.7,1379.33,1.90551e-09,0.217289
456.4,21550.0,456.82,8339.83,-5148.18,13210.2,8061.98,4.39886,4875.49,1883.63,1298.32,4.8411e-10,0.147235
456.3,21968.0,456.7195,8822.88,-4481.35,13145.1,8663.76,10.4765,5976.62,1454.71,1221.86,1.19024e-10,0.0990112
456.2,22470.0,456.62,9393.93,-3730.52,13076.1,9345.55,23.7368,7106.95,1064.81,1149.99,2.83196e-11,0.0660777
456.1,22802.0,456.519,9798.67,-2932.88,13003.3,10070.4,51.164,8197.88,738.721,1082.63,6.52073e-12,0.0437647
456.0,23160.0,456.4195,10232.6,-2144.09,12927.4,10783.3,104.918,9172.98,485.742,1019.64,1.45299e-12,0.0287667
455.9,23901.0,456.32,11054.3,-1421.87,12846.7,11424.8,204.685,9956.58,302.724,960.844,3.13318e-13,0.0187653
455.8,24322.0,456.2195,11561,-812.898,12761,11948.1,379.908,10483.3,178.815,906.024,6.53831e-14,0.0121484
455.7,24770.0,456.12,12098.7,-338.079,12671.3,12333.2,670.862,10707.3,100.109,854.956,1.32039e-14,0.00780515
455.6,25372.0,456.019,12795,19.0879,12577,12596.1,1127.09,10608.4,53.1204,807.406,2.58043e-15,0.0049767
455.5,25397.0,455.9195,12917.5,307.561,12479.5,12787.1,1801.61,10195.6,26.7155,763.141,4.88021e-16,0.0031492
455.4,25870.0,455.82,13490.6,600.516,12379.4,12979.9,2739.98,9505.29,12.7345,721.934,8.93181e-17,0.00197768
455.3,26196.0,455.7195,13920.5,974.867,12275.5,13250.4,3964.84,8596.24,5.75327,683.565,1.58196e-17,0.00123257
455.2,26298.0,455.62,14128.8,1481.19,12169.2,13650.4,5458.9,7541.22,2.46356,647.826,2.71146e-18,0.000762369
455.1,26706.0,455.519,14645.8,2124.28,12060.2,14184.4,7151.43,6417.5,0.999831,614.52,4.49743e-19,0.000467969
455.0,26821.0,455.4195,14872.7,2847.68,11948.3,14795.9,8914.49,5297.61,0.384597,583.463,7.21904e-20,0.00028508
454.9,26918.0,455.32,15083.3,3535.7,11834.7,15370.4,10573.7,4242.14,0.140217,554.484,1.12136e-20,0.000172352
454.8,26785.0,455.2195,15064.5,4036.26,11720.5,15756.7,11934.1,3295.19,0.0484518,527.424,1.68564e-21,0.00010341
454.7,26416.0,455.12,14808.8,4195.08,11607.2,15802.3,12817.2,2482.94,0.0158685,502.136,2.45208e-22,6.15753e-05
454.6,26044.0,455.019,14548,3896.79,11496,15392.8,13099.4,1814.86,0.00492578,478.484,3.45188e-23,3.63873e-05
454.5,25831.0,454.9195,14444.9,3097.1,11386.1,14483.2,12740,1286.8,0.00144921,456.344,4.70248e-24,2.13398e-05
454.4,24860.0,454.82,13580.1,1832.08,11279.9,13111.9,11791.3,885.051,0.000404112,435.6,6.19938e-25,1.24203e-05
454.3,23890.0,454.7195,12709.8,212.047,11180.2,11392.3,10385.6,590.496,0.000106804,416.148,7.90897e-26,7.17413e-06
454.2,21809.0,454.62,10717.6,-1605.84,11091.4,9485.58,8705.52,382.169,2.67541e-05,397.891,9.76429e-27,4.11249e-06
454.1,19243.0,454.519,8223.37,-3454.18,11019.6,7565.45,6944.78,239.93,6.35196e-06,380.739,1.16657e-27,2.33959e-06
454.0,16348.0,454.4195,5379.93,-5184.62,10968.1,5783.45,5272.72,146.119,1.42936e-06,364.611,1.34874e-28,1.32091e-06
453.9,14368.0,454.32,3433.34,-6688.84,10934.7,4245.83,3810.07,86.3209,3.04851e-07,349.433,1.50902e-29,7.40124e-07
453.8,13215.0,454.2195,2302.07,-7907.93,10912.9,3004.99,2620.39,49.4672,6.16242e-08,335.136,1.63384e-30,4.11561e-07
453.7,12433.0,454.12,1534.62,-8833.92,10898.4,2064.47,1715.31,27.4985,1.18067e-08,321.656,1.71188e-31,2.27123e-07
453.6,11984.0,454.019,1095.58,-9495.9,10888.4,1392.52,1068.75,14.8283,2.144e-09,308.937,1.73573e-32,1.24391e-07
453.5,11717.0,453.9195,835.906,-9942.57,10881.1,938.52,633.839,7.75646,3.69006e-10,296.924,1.70309e-33,6.76102e-08
453.4,11550.0,453.82,674.631,-10228,10875.4,647.322,357.816,3.93575,6.01947e-11,285.57,1.61711e-34,3.64699e-08
453.3,11641.0,453.7195,771.111,-10400.8,10869.9,469.045,192.28,1.93723,9.30675e-12,274.828,1.48589e-35,1.95234e-08
453.2,11444.0,453.62,579.229,-10500.8,10864.8,363.941,98.3579,0.924965,1.36381e-12,264.658,1.32124e-36,1.03723e-08
453.1,11454.0,453.519,593.674,-10557,10860.3,303.347,47.8963,0.428411,1.89419e-13,255.022,1.1369e-37,5.46881e-09
453.0,11337.0,453.4195,480.747,-10588,10856.3,268.28,22.2035,0.19248,2.4935e-14,245.884,9.46685e-39,2.8616e-09
452.9,11405.0,453.32,552.663,-10605.2,10852.3,247.094,9.79902,0.0838884,3.11108e-15,237.211,7.62842e-40,1.48601e-09
452.8,11154.0,453.2195,304.914,-10616,10849.1,233.127,4.11715,0.0354657,3.67899e-16,228.975,5.94851e-41,7.65836e-10
452.7,11101.0,453.12,254.032,-10624.2,10847,222.808,1.64693,0.0145447,4.12345e-17,221.146,4.48875e-42,3.91694e-10
452.6,11133.0,453.019,288.087,-10630.6,10844.9,214.333,0.627239,0.00578621,4.38034e-18,213.7,3.27783e-43,1.98818e-10
452.5,11071.0,452.9195,228.043,-10636.1,10843,206.843,0.227448,0.00223292,4.41033e-19,206.613,2.31628e-44,1.00153e-10
452.4,11072.0,452.82,230.783,-10641.3,10841.2,199.942,0.0785297,0.000835875,4.20871e-20,199.863,1.58394e-45,5.0069e-11
452.3,10885.0,452.7195,44.8272,-10646.7,10840.2,193.455,0.0258168,0.000303529,3.80664e-21,193.429,1.04817e-46,2.48412e-11
452.2,11000.0,452.62,160.606,-10652.1,10839.4,187.301,0.00808165,0.000106918,3.26326e-22,187.293,6.71218e-48,1.22314e-11
452.1,10949.0,452.519,110.634,-10656.9,10838.4,181.439,0.00240901,3.65335e-05,2.6514e-23,181.437,4.15948e-49,5.9769e-12
452.0,10917.0,452.4195,79.3539,-10661.8,10837.6,175.845,0.000683806,1.21094e-05,2.04181e-24,175.844,2.49435e-50,2.89851e-12
451.9,11053.0,452.32,216.475,-10666,10836.5,170.5,0.000184839,3.89353e-06,1.49029e-25,170.5,1.44749e-51,1.39499e-12
451.8,11118.0,452.2195,283.37,-10669.2,10834.6,165.39,4.75808e-05,1.21438e-06,1.03096e-26,165.39,8.12862e-53,6.66296e-13
451.7,11021.0,452.12,188.157,-10672.3,10832.8,160.502,1.16644e-05,3.67417e-07,6.75967e-28,160.502,4.41732e-54,3.15836e-13
451.6,11002.0,452.019,170.516,-10675.7,10831.5,155.822,2.7233e-06,1.07833e-07,4.20075e-29,155.822,2.32296e-55,1.48578e-13
451.5,10903.0,451.9195,72.4372,-10679.2,10830.6,151.34,6.05543e-07,3.06999e-08,2.47425e-30,151.34,1.18213e-56,6.93656e-14
451.4,10847.0,451.82,16.7754,-10683.2,10830.2,147.044,1.28239e-07,8.47834e-09,1.38126e-31,147.044,5.8214e-58,3.2139e-14
451.3,10836.0,451.7195,5.86118,-10687.2,10830.1,142.926,2.58663e-08,2.27131e-09,7.30839e-33,142.926,2.77416e-59,1.47781e-14
451.2,10924.0,451.62,94.2406,-10690.8,10829.8,138.974,4.96934e-09,5.90244e-10,3.66509e-34,138.974,1.27931e-60,6.7438e-15
451.1,10955.0,451.519,126.076,-10693.7,10828.9,135.181,9.09332e-10,1.48791e-10,1.74205e-35,135.181,5.70897e-62,3.05414e-15
451.0,10889.0,451.4195,60.7839,-10696.7,10828.2,131.539,1.58496e-10,3.63843e-11,7.84793e-37,131.539,2.46536e-63,1.37268e-15
450.9,10910.0,451.32,82.3263,-10699.6,10827.7,128.039,2.63144e-11,8.63061e-12,3.35091e-38,128.039,1.03025e-64,6.12281e-16
450.8,10842.0,451.2195,14.694,-10702.6,10827.3,124.675,4.16162e-12,1.98591e-12,1.35609e-39,124.675,4.16621e-66,2.71037e-16
450.7,10895.0,451.12,68.0075,-10705.6,10827,121.439,6.26947e-13,4.43269e-13,5.20147e-41,121.439,1.63035e-67,1.19071e-16
450.6,10979.0,451.019,152.845,-10707.8,10826.2,118.325,8.99726e-14,9.59769e-14,1.89095e-42,118.325,6.17386e-69,5.19136e-17
450.5,10977.0,450.9195,152.0,-10709.7,10825.0,115.328,1.23001e-14,2.01584e-14,6.51554e-44,115.328,2.26241e-70,2.24623e-17
450.4,10825.0,450.82,0.0,-10712.6,10825.0,112.442,1.6019e-15,4.10711e-15,2.12782e-45,112.442,8.02277e-72,9.64553e-18
450.3,10851.0,450.7195,26.0,-10715.3,10825.0,109.661,1.98747e-16,8.11721e-16,6.58622e-47,109.661,2.75306e-73,4.11051e-18