File: XPS/LG4X-result/MX-UT-0.1-2-Ti2p.csv
#No of rows lightened (2D detector)1(if not using 2D detector, value is 1 and can be ignored!)
raw_x,raw_y,corrected x,data-bg,sum_components,bg,sum_fit,C_1,C_2,C_3,C_4,C_5,C_6,C_7
470.0,520.0,470.4017,520.0,119.88,0.0,119.88,22.8508,16.2647,12.0163,23.2077,24.6389,16.6528,4.24917
469.9,520.0,470.3017,520.0,122.176,0.0,122.176,23.1484,16.4876,12.1921,23.7026,25.213,17.1087,4.32325
469.8,628.0,470.202,628.0,124.542,0.0,124.542,23.4518,16.7152,12.3718,24.2135,25.8074,17.5833,4.39927
469.7,538.0,470.102,538.0,126.983,0.0,126.983,23.7611,16.9475,12.5555,24.7411,26.4229,18.0778,4.47732
469.6,341.0,470.0017,341.0,129.502,0.0,129.502,24.0767,17.1847,12.7433,25.286,27.0607,18.5931,4.55747
469.5,335.0,469.9017,335.0,132.102,0.0,132.102,24.3986,17.4269,12.9354,25.8492,27.7217,19.1305,4.63978
469.4,287.0,469.8017,287.0,134.787,0.0,134.787,24.727,17.6742,13.1318,26.4313,28.4071,19.6912,4.72434
469.3,340.0,469.702,340.0,137.561,0.0,137.561,25.062,17.9269,13.3328,27.0332,29.1182,20.2764,4.81123
469.2,580.0,469.602,580.0,140.427,0.0,140.427,25.4039,18.185,13.5383,27.6559,29.8561,20.8876,4.90054
469.1,490.0,469.5017,490.0,143.392,0.0,143.392,25.7529,18.4487,13.7487,28.3003,30.6223,21.5264,4.99236
469.0,439.0,469.4017,439.0,146.458,0.0,146.458,26.1091,18.7182,13.964,28.9675,31.4181,22.1943,5.08678
468.9,484.0,469.3017,484.0,149.631,0.0,149.631,26.4727,18.9936,14.1845,29.6584,32.2451,22.893,5.18391
468.8,377.0,469.202,377.0,152.917,0.0,152.917,26.8439,19.2752,14.4101,30.3742,33.105,23.6245,5.28384
468.7,432.0,469.102,432.0,156.32,0.0,156.32,27.2231,19.5631,14.6412,31.1162,33.9994,24.3906,5.38668
468.6,335.0,469.0017,335.0,159.847,0.0,159.847,27.6103,19.8574,14.8779,31.8856,34.9302,25.1935,5.49255
468.5,380.0,468.9017,380.0,163.505,0.0,163.505,28.0058,20.1585,15.1204,32.6837,35.8993,26.0356,5.60158
468.4,361.0,468.8017,361.0,167.299,0.0,167.299,28.4099,20.4664,15.3689,33.5119,36.9088,26.9192,5.71387
468.3,273.0,468.702,273.0,171.237,0.0,171.237,28.8228,20.7814,15.6235,34.3719,37.961,27.847,5.82958
468.2,454.0,468.602,454.0,175.327,0.0,175.327,29.2448,21.1038,15.8845,35.2652,39.0581,28.8219,5.94883
468.1,304.0,468.5017,304.0,179.577,0.0,179.577,29.676,21.4337,16.1521,36.1935,40.2028,29.8469,6.07178
468.0,239.0,468.4017,239.0,183.995,0.0,183.995,30.1169,21.7715,16.4265,37.1587,41.3976,30.9254,6.19857
467.9,104.0,468.3017,104.0,188.591,0.0,188.591,30.5677,22.1172,16.7079,38.1626,42.6456,32.061,6.32937
467.8,76.0,468.202,76.0,193.376,0.0,193.376,31.0287,22.4713,16.9967,39.2073,43.9498,33.2575,6.46435
467.7,395.0,468.102,395.0,198.358,0.0,198.358,31.5002,22.8339,17.293,40.2951,45.3134,34.5192,6.60368
467.6,367.0,468.0017,367.0,203.551,0.0,203.551,31.9825,23.2054,17.5971,41.4282,46.7399,35.8506,6.74756
467.5,286.0,467.9017,286.0,208.967,0.0,208.967,32.4759,23.586,17.9093,42.6092,48.2333,37.2568,6.89619
467.4,361.0,467.8017,361.0,214.618,0.0,214.618,32.9809,23.976,18.2299,43.8407,49.7975,38.7432,7.04977
467.3,391.0,467.702,391.0,220.519,0.0,220.519,33.4977,24.3758,18.5591,45.1256,51.4368,40.3157,7.20853
467.2,280.0,467.602,280.0,226.686,0.0,226.686,34.0268,24.7857,18.8974,46.4667,53.156,41.9808,7.3727
467.1,455.0,467.5017,455.0,233.135,0.0,233.135,34.5684,25.206,19.2449,47.8675,54.96,43.7456,7.54253
467.0,450.0,467.4017,450.0,239.884,0.0,239.884,35.1232,25.637,19.6022,49.3314,56.8543,45.6179,7.71827
466.9,340.0,467.3017,340.0,246.953,0.0,246.953,35.6913,26.0792,19.9694,50.8619,58.8447,47.6063,7.90022
466.8,296.0,467.202,296.0,254.363,0.0,254.363,36.2734,26.533,20.3471,52.4632,60.9375,49.7204,8.08865
466.7,158.0,467.102,158.0,262.137,0.0,262.137,36.8698,26.9987,20.7356,54.1394,63.1394,51.9706,8.28388
466.6,119.0,467.0017,119.0,270.301,0.0,270.301,37.481,27.4767,21.1353,55.8951,65.4578,54.3686,8.48623
466.5,273.0,466.9017,273.0,278.881,0.0,278.881,38.1076,27.9675,21.5467,57.7352,67.9007,56.9274,8.69606
466.4,274.0,466.8017,274.0,287.908,0.0,287.908,38.7499,28.4716,21.9702,59.6649,70.4767,59.6613,8.91373
466.3,231.0,466.702,231.0,297.416,0.0,297.416,39.4087,28.9895,22.4063,61.6898,73.195,62.5867,9.13962
466.2,61.0,466.602,61.0,307.439,0.0,307.439,40.0844,29.5215,22.8555,63.8161,76.066,65.7216,9.37416
466.1,193.0,466.5017,193.0,318.019,0.0,318.019,40.7775,30.0684,23.3183,66.0502,79.1007,69.0865,9.61778
466.0,276.0,466.4017,276.0,329.201,0.0,329.201,41.4889,30.6306,23.7953,68.3992,82.3112,72.7047,9.87096
465.9,155.0,466.3017,155.0,341.033,0.0,341.033,42.2189,31.2087,24.2871,70.8708,85.7107,76.6022,10.1342
465.8,284.0,466.202,284.0,353.57,0.0,353.57,42.9685,31.8032,24.7943,73.4731,89.3138,80.8091,10.408
465.7,190.0,466.102,190.0,366.875,0.0,366.875,43.7381,32.415,25.3175,76.2151,93.1365,85.3595,10.6929
465.6,0.0,466.0017,0.0,381.015,0.0,381.015,44.5286,33.0445,25.8574,79.1065,97.1963,90.2927,10.9896
465.5,240.86,465.9017,240.86,396.071,0.0,396.071,45.3406,33.6926,26.4147,82.1577,101.513,95.6538,11.2986
465.4,185.382,465.8017,185.382,412.128,0.0,412.128,46.1751,34.3598,26.9902,85.3802,106.107,101.495,11.6207
465.3,209.793,465.702,209.793,429.289,0.0,429.289,47.0329,35.0471,27.5847,88.7865,111.003,107.878,11.9566
465.2,354.809,465.602,354.809,447.667,0.0,447.667,47.9147,35.7552,28.1991,92.3901,116.227,114.874,12.307
465.1,286.098,465.5017,286.098,467.394,0.0,467.394,48.8215,36.4849,28.8341,96.2059,121.809,122.566,12.6727
465.0,160.694,465.4017,160.694,488.622,0.0,488.622,49.7543,37.2372,29.4908,100.25,127.781,131.053,13.0548
464.9,246.146,465.3017,246.146,511.527,0.0,511.527,50.7141,38.013,30.1701,104.541,134.182,140.454,13.454
464.8,196.728,465.202,196.728,536.316,0.0,536.316,51.7019,38.8133,30.8731,109.098,141.052,150.907,13.8714
464.7,496.202,465.102,496.202,563.23,0.0,563.23,52.7188,39.639,31.6009,113.943,148.439,162.582,14.3081
464.6,502.77,465.0017,502.77,592.554,0.0,592.554,53.766,40.4914,32.3546,119.099,156.396,175.681,14.7653
464.5,487.305,464.9017,487.305,624.628,0.0,624.628,54.8447,41.3715,33.1355,124.595,164.985,190.452,15.2441
464.4,520.905,464.8017,520.905,659.858,0.0,659.858,55.9561,42.2806,33.9449,130.459,174.276,207.196,15.746
464.3,750.445,464.702,750.445,698.731,0.0,698.731,57.1017,43.22,34.7842,136.724,184.347,226.281,16.2722
464.2,633.387,464.602,633.387,741.836,0.0,741.836,58.2827,44.191,35.6549,143.428,195.293,248.162,16.8245
464.1,587.747,464.5017,587.747,789.889,0.0,789.889,59.5007,45.1951,36.5585,150.612,207.22,273.399,17.4044
464.0,616.046,464.4017,616.046,843.756,0.0,843.756,60.7573,46.2337,37.4966,158.323,220.252,302.68,18.0137
463.9,780.031,464.3017,780.031,904.485,0.0,904.485,62.0541,47.3085,38.4711,166.615,234.534,336.848,18.6543
463.8,933.149,464.202,933.149,973.332,0.0,973.332,63.3927,48.4212,39.4838,175.547,250.239,376.92,19.3284
463.7,977.974,464.102,977.974,1051.77,0.0,1051.77,64.7752,49.5735,40.5367,185.188,267.567,424.091,20.0381
463.6,1119.46,464.0017,1119.46,1141.45,0.0,1141.45,66.2032,50.7674,41.6319,195.616,286.759,479.686,20.7859
463.5,1078.31,463.9017,1078.31,1244.09,0.0,1244.09,67.679,52.005,42.7716,206.921,308.101,545.036,21.5745
463.4,1231.56,463.8017,1231.56,1361.18,0.0,1361.18,69.2047,53.2882,43.9583,219.207,331.937,621.179,22.4066
463.3,1493.29,463.702,1493.29,1493.49,0.0,1493.49,70.7824,54.6195,45.1945,232.594,358.682,708.33,23.2855
463.2,1616.39,463.602,1616.39,1640.24,0.0,1640.24,72.4147,56.0012,46.4828,247.221,388.84,805.067,24.2145
463.1,1675.15,463.5017,1675.15,1798.19,0.0,1798.19,74.104,57.436,47.8262,263.253,423.025,907.348,25.1973
463.0,1622.93,463.4017,1622.93,1960.84,0.0,1960.84,75.853,58.9265,49.2279,280.88,461.991,1007.73,26.238
462.9,1802.16,463.3017,1802.16,2118.54,0.0,2118.54,77.6646,60.4757,50.691,300.331,506.665,1095.38,27.341
462.8,1968.62,463.202,1968.62,2260.01,0.0,2260.01,79.5418,62.0867,52.2191,321.873,558.189,1157.59,28.5112
462.7,2027.89,463.102,2027.89,2375.41,0.0,2375.41,81.4878,63.7628,53.816,345.828,617.971,1182.79,29.754
462.6,2379.63,463.002,2379.63,2460.04,0.0,2460.04,83.506,65.5076,55.4857,372.583,687.731,1164.15,31.0753
462.5,2410.74,462.9017,2410.74,2517.05,0.0,2517.05,85.6,67.3249,57.2326,402.602,769.546,1102.26,32.4817
462.4,2465.15,462.802,2465.15,2557.55,0.0,2557.55,87.7737,69.2188,59.0612,436.453,865.852,1005.22,33.9804
462.3,2539.02,462.702,2539.02,2598.08,0.0,2598.08,90.0311,71.1935,60.9765,474.824,979.359,886.113,35.5796
462.2,2772.99,462.602,2772.99,2656.43,0.0,2656.43,92.3765,73.2538,62.9838,518.561,1112.78,759.183,37.2883
462.1,2923.33,462.502,2923.33,2747.71,0.0,2747.71,94.8147,75.4047,65.089,568.705,1268.24,636.336,39.1167
462.0,3137.97,462.4017,3137.97,2881.46,0.0,2881.46,97.3506,77.6515,67.298,626.539,1446.17,525.372,41.076
461.9,3176.52,462.302,3176.52,3060.04,0.0,3060.04,99.9894,80.0001,69.6175,693.641,1643.68,429.938,43.1791
461.8,3405.03,462.202,3405.03,3277.67,0.0,3277.67,102.737,82.4566,72.0548,771.943,1852.5,350.538,45.4404
461.7,3472.58,462.102,3472.58,3520.16,0.0,3520.16,105.599,85.0277,74.6173,863.776,2057.44,285.829,47.8764
461.6,3833.68,462.002,3833.68,3766.07,0.0,3766.07,108.582,87.7207,77.3136,971.874,2236.39,233.678,50.5057
461.5,3868.18,461.9017,3868.18,3990.26,0.0,3990.26,111.693,90.5434,80.1525,1099.28,2363.41,191.827,53.3497
461.4,3928.02,461.802,3928.02,4170.15,0.0,4170.15,114.939,93.5041,83.1437,1249.04,2414.86,158.233,56.4329
461.3,3992.3,461.702,3992.3,4292.55,0.0,4292.55,118.329,96.6121,86.2979,1423.54,2376.81,131.181,59.7836
461.2,4199.55,461.602,4199.55,4357.81,0.0,4357.81,121.87,99.8773,89.6266,1623.26,2250.46,109.291,63.4346
461.1,4335.03,461.502,4335.03,4378.19,0.0,4378.19,125.573,103.31,93.142,1844.94,2052.32,91.4807,67.424
461.0,4409.26,461.4017,4409.26,4370.41,0.0,4370.41,129.446,106.923,96.858,2079.34,1809.15,76.9036,71.7962
460.9,4277.27,461.302,4277.27,4345.89,0.0,4345.89,133.502,110.727,100.789,2309.37,1550,64.9034,76.6037
460.8,4374.17,461.202,4374.17,4303.74,0.0,4303.74,137.75,114.738,104.952,2510.24,1299.19,54.9696,81.9083
460.7,4197.78,461.102,4197.78,4230.47,0.0,4230.47,142.204,118.97,109.364,2652.81,1072.64,46.7031,87.7835
460.6,3934.82,461.002,3934.82,4106.81,0.0,4106.81,146.877,123.439,114.045,2710.55,877.79,39.7909,94.3168
460.5,3606.75,460.9017,3606.75,3918.09,0.0,3918.09,151.783,128.164,119.016,2667.85,715.681,33.9852,101.613
460.4,3406.79,460.802,3406.79,3662.88,0.0,3662.88,156.939,133.163,124.301,2526.02,583.568,29.0893,109.801
460.3,3318.81,460.702,3318.81,3355.44,0.0,3355.44,162.361,138.459,129.927,2303.62,477.092,24.9455,119.033
460.2,2983.32,460.602,2983.32,3021.31,0.0,3021.31,168.068,144.076,135.922,2030.68,391.648,21.4266,129.497
460.1,2629.36,460.502,2629.36,2689.15,0.0,2689.15,174.08,150.039,142.318,1739.79,323.059,18.4297,141.426
460.0,2297.95,460.4017,2297.95,2383.02,0.0,2383.02,180.419,156.376,149.153,1458.27,267.827,15.8705,155.101
459.9,2065.54,460.302,2065.54,2118.37,0.0,2118.37,187.11,163.12,156.467,1203.98,223.137,13.6801,170.874
459.8,1745.14,460.202,1745.14,1901.81,0.0,1901.81,194.178,170.304,164.304,985.274,186.773,11.8014,189.175
459.7,1729.55,460.102,1729.55,1733.38,0.0,1733.38,201.652,177.968,172.716,803.315,157.011,10.1871,210.53
459.6,1703.81,460.002,1703.81,1609.39,0.0,1609.39,209.564,186.154,181.762,655.025,132.511,8.79799,235.575
459.5,1664.84,459.9017,1664.84,1524.76,0.0,1524.76,217.948,194.909,191.506,535.512,112.23,7.60089,265.057
459.4,1695.84,459.802,1695.84,1474.48,0.0,1474.48,226.842,204.284,202.023,439.604,95.3522,6.56813,299.804
459.3,1602.62,459.702,1602.62,1454.21,0.0,1454.21,236.287,214.339,213.399,362.617,81.2397,5.67628,340.647
459.2,1580.99,459.602,1580.99,1460.35,0.0,1460.35,246.33,225.136,225.732,300.622,69.3865,4.9055,388.237
459.1,1477.91,459.502,1477.91,1489.7,0.0,1489.7,257.02,236.749,239.135,250.459,59.3907,4.23895,442.706
459.0,1564.78,459.4017,1564.78,1538.81,0.0,1538.81,268.413,249.256,253.738,209.643,50.9304,3.66224,503.167
458.9,1617.14,459.302,1617.14,1603.25,0.0,1603.25,280.571,262.748,269.696,176.237,43.7461,3.16309,567.093
458.8,1690.95,459.202,1690.95,1677,0.0,1677,293.562,277.325,287.185,148.737,37.6273,2.73098,629.828
458.7,1863.65,459.102,1863.65,1752.32,0.0,1752.32,307.461,293.099,306.415,125.972,32.4023,2.35687,684.61
458.6,1920.16,459.002,1920.16,1820.67,0.0,1820.67,322.352,310.197,327.633,107.028,27.9301,2.03297,723.494
458.5,1896.79,458.9017,1896.79,1874.5,0.0,1874.5,338.328,328.761,351.134,91.1874,24.0945,1.75258,739.241
458.4,1995.69,458.802,1995.69,1909.5,0.0,1909.5,355.492,348.954,377.267,77.8828,20.7988,1.5099,727.596
458.3,2163.54,458.702,2163.54,1926.21,0.0,1926.21,373.96,370.957,406.454,66.6631,17.9626,1.29993,688.915
458.2,1979.33,458.602,1979.33,1930.11,0.0,1930.11,393.86,394.98,439.203,57.1668,15.5185,1.11832,628.26
458.1,1989.51,458.502,1989.51,1930.02,0.0,1930.02,415.337,421.261,476.13,49.1027,13.4099,0.961318,553.821
458.0,2093.08,458.4017,2093.08,1935.75,0.0,1935.75,438.551,450.072,517.989,42.2347,11.5891,0.825661,474.489
457.9,2328.88,458.302,2328.88,1955.92,0.0,1955.92,463.685,481.729,565.703,36.3699,10.0154,0.708518,397.71
457.8,2417.83,458.202,2417.83,1996.91,0.0,1996.91,490.941,516.595,620.406,31.3502,8.65452,0.60743,328.358
457.7,2630.85,458.102,2630.85,2062.9,0.0,2062.9,520.551,555.096,683.497,27.0448,7.47707,0.520259,268.711
457.6,2715.95,458.002,2715.95,2156.54,0.0,2156.54,552.775,597.728,756.7,23.3455,6.45798,0.445149,219.086
457.5,2972.26,457.9017,2972.26,2279.87,0.0,2279.87,587.91,645.076,842.12,20.1621,5.57575,0.380485,178.643
457.4,3050.77,457.802,3050.77,2435.03,0.0,2435.03,626.291,697.833,942.301,17.4187,4.81194,0.324864,146.049
457.3,3376.72,457.702,3376.72,2624.73,0.0,2624.73,668.305,756.827,1060.23,15.052,4.15065,0.277067,119.892
457.2,3525.37,457.602,3525.37,2852.38,0.0,2852.38,714.396,823.05,1199.21,13.0081,3.57818,0.236033,98.8956
457.1,4005.26,457.502,4005.26,3121.88,0.0,3121.88,765.075,897.703,1362.59,11.2418,3.08272,0.20084,81.9878
457.0,4246.73,457.4017,4246.73,3436.98,0.0,3436.98,820.934,982.248,1552.95,9.71425,2.65402,0.170691,68.3071
456.9,4445.77,457.302,4445.77,3799.96,0.0,3799.96,882.665,1078.47,1770.82,8.39263,2.28324,0.14489,57.1755
456.8,4728.53,457.202,4728.53,4209.73,0.0,4209.73,951.079,1188.59,2012.67,7.24875,1.96269,0.122836,48.0647
456.7,4868.8,457.102,4868.8,4659.43,0.0,4659.43,1027.13,1315.31,2268.37,6.2585,1.68573,0.104006,40.5646
456.6,5443.62,457.002,5443.62,5134.6,0.0,5134.6,1111.97,1462.03,2519.31,5.40115,1.44656,0.0879492,34.356
456.5,5662.28,456.9017,5662.28,5613.45,0.0,5613.45,1206.93,1632.92,2738.44,4.65889,1.24017,0.0742732,29.1895
456.4,6232.76,456.802,6232.76,6070.76,0.0,6070.76,1313.67,1833.11,2893.97,4.01633,1.0622,0.06264,24.8693
456.3,6806.32,456.702,6806.32,6485.58,0.0,6485.58,1434.15,2068.8,2956.97,3.46019,0.908846,0.0527572,21.2408
456.2,6888.22,456.602,6888.22,6850.31,0.0,6850.31,1570.8,2347.15,2910.38,2.979,0.776824,0.0443726,18.1808
456.1,7196.52,456.502,7196.52,7176.89,0.0,7176.89,1726.57,2675.81,2755.66,2.56282,0.663265,0.0372685,15.5909
456.0,7711.75,456.4017,7711.75,7495.84,0.0,7495.84,1905.12,3061.49,2513.04,2.20302,0.565678,0.0312576,13.3916
455.9,8090.18,456.302,8090.18,7846.96,0.0,7846.96,2110.97,3506.78,2215.28,1.89214,0.4819,0.0261788,11.5186
455.8,8284.66,456.202,8284.66,8263.88,0.0,8263.88,2349.73,4004.22,1897.96,1.62369,0.410049,0.0218935,9.91907
455.7,8639.09,456.102,8639.09,8756.81,0.0,8756.81,2628.32,4527.34,1590.84,1.39203,0.348494,0.018283,8.55004
455.6,9115.49,456.002,9115.49,9298.98,0.0,9298.98,2955.22,5021.45,1313.43,1.19226,0.295818,0.0152455,7.37586
455.5,9556.17,455.9017,9556.17,9825.14,0.0,9825.14,3340.52,5402.12,1074.84,1.02013,0.25079,0.0126936,6.36697
455.4,9699.93,455.802,9699.93,10251.2,0.0,10251.2,3795.74,5572.5,876.344,0.871945,0.212346,0.0105531,5.49874
455.3,10079.6,455.702,10079.6,10514.4,0.0,10514.4,4332.67,5461.51,714.573,0.744481,0.179563,0.00876019,4.75056
455.2,10399.7,455.602,10399.7,10613.1,0.0,10613.1,4960.51,5063.51,584.195,0.634945,0.151641,0.0072608,4.10508
455.1,10513.4,455.502,10513.4,10611.7,0.0,10611.7,5679.77,4448.13,479.568,0.540908,0.12789,0.00600878,3.54767
455.0,10425.1,455.4017,10425.1,10599.9,0.0,10599.9,6471.63,3729,395.583,0.460259,0.107713,0.00496494,3.06594
454.9,10282.1,455.302,10282.1,10629.3,0.0,10629.3,7283.03,3015.19,327.951,0.391167,0.090594,0.00409603,2.64934
454.8,10116.9,455.202,10116.9,10668.8,0.0,10668.8,8014.22,2378.67,273.228,0.33204,0.0760898,0.00337386,2.2889
454.7,10328.9,455.102,10328.9,10604.2,0.0,10604.2,8523.6,1849.54,228.702,0.281499,0.0638176,0.00277462,1.97693
454.6,10008.6,455.002,10008.6,10287.9,0.0,10287.9,8665.27,1428.36,192.259,0.238348,0.0534484,0.00227818,1.70686
454.5,9623.67,454.9017,9623.67,9619.15,0.0,9619.15,8353.95,1101.22,162.259,0.20155,0.0446993,0.00186756,1.47304
454.4,8725.19,454.802,8725.19,8606.51,0.0,8606.51,7617.5,850.105,137.424,0.170209,0.0373279,0.00152848,1.27061
454.3,7158.91,454.702,7158.91,7368.3,0.0,7368.3,6592.18,658.089,116.758,0.14355,0.0311261,0.00124893,1.09536
454.2,5107.72,454.602,5107.72,6071.98,0.0,6071.98,5460.25,511.158,99.4772,0.120902,0.0259162,0.00101885,0.943688
454.1,3292.71,454.502,3292.71,4861.62,0.0,4861.62,4377.35,398.368,84.9631,0.101687,0.0215459,0.000829788,0.812455
454.0,2166.21,454.4017,2166.21,3819.93,0.0,3819.93,3434.98,311.419,72.7233,0.0854069,0.0178854,0.000674697,0.69895
453.9,1406.97,454.302,1406.97,2970.74,0.0,2970.74,2663.61,244.083,62.3637,0.071632,0.0148241,0.000547684,0.600824
453.8,907.23,454.202,907.23,2300.99,0.0,2300.99,2055.12,191.708,53.5666,0.0599931,0.0122679,0.000443842,0.516038
453.7,749.144,454.102,749.144,1782.06,0.0,1782.06,1584.68,150.809,46.0742,0.0501727,0.0101368,0.000359088,0.442824
453.6,560.822,454.002,560.822,1383.08,0.0,1383.08,1224.21,118.761,39.6763,0.0418986,0.00836272,0.00029003,0.379644
453.5,668.211,453.9017,668.211,1076.77,0.0,1076.77,948.625,93.5771,34.2002,0.0349375,0.0068883,0.000233858,0.325162
453.4,557.588,453.802,557.588,841.142,0.0,841.142,737.582,73.7435,29.5034,0.0290896,0.00566485,0.000188246,0.278218
453.3,477.284,453.702,477.284,659.215,0.0,659.215,575.383,58.0973,25.4679,0.0241841,0.00465127,0.000151272,0.237803
453.2,418.482,453.602,418.482,518.135,0.0,518.135,450.172,45.7409,21.995,0.0200754,0.00381293,0.000121353,0.20304
453.1,394.385,453.502,394.385,408.248,0.0,408.248,353.077,35.9766,19.0022,0.0166393,0.00312064,9.71854e-05,0.173167
453.0,385.169,453.4017,385.169,322.304,0.0,322.304,277.46,28.2596,16.4203,0.0137701,0.0025499,7.76968e-05,0.14752
452.9,358.826,453.302,358.826,254.839,0.0,254.839,218.347,22.1626,14.1907,0.011378,0.00208015,6.20091e-05,0.125525
452.8,313.225,453.202,313.225,201.715,0.0,201.715,171.985,17.3489,12.2638,0.00938672,0.00169415,4.94033e-05,0.106682
452.7,273.32,453.102,273.32,159.776,0.0,159.776,135.526,13.5524,10.5974,0.00773177,0.00137751,3.92918e-05,0.0905565
452.6,181.946,453.002,181.946,126.599,0.0,126.599,106.797,10.5623,9.15559,0.00635851,0.00111819,3.11954e-05,0.0767725
452.5,104.97,452.9017,104.97,100.315,0.0,100.315,84.1246,8.21138,7.90773,0.00522082,0.000906178,2.47242e-05,0.065004
452.4,199.056,452.802,199.056,79.4691,0.0,79.4691,66.215,6.36663,6.82745,0.00427981,0.000733137,1.9561e-05,0.0549683
452.3,123.207,452.702,123.207,62.9262,0.0,62.9262,52.0612,4.92229,5.89217,0.00350276,0.000592144,1.54488e-05,0.0464208
452.2,151.187,452.602,151.187,49.7949,0.0,49.7949,40.8758,3.79422,5.08242,0.00286213,0.000477459,1.21797e-05,0.03915
452.1,141.231,452.502,141.231,39.3725,0.0,39.3725,32.0398,2.9155,4.38145,0.00233486,0.000384335,9.58536e-06,0.0329733
452.0,138.229,452.4017,138.229,31.1033,0.0,31.1033,25.0657,2.23298,3.77475,0.0019016,0.000308847,7.53029e-06,0.0277329
451.9,223.52,452.302,223.52,24.5467,0.0,24.5467,19.5674,1.70445,3.24982,0.00154618,0.000247763,5.90531e-06,0.0232928
451.8,200.033,452.202,200.033,19.3523,0.0,19.3523,15.2391,1.29647,2.7958,0.00125511,0.00019842,4.62275e-06,0.019536
451.7,55.9471,452.102,55.9471,15.2414,0.0,15.2414,11.8379,0.982593,2.4033,0.00101714,0.000158631,3.6123e-06,0.0163617
451.6,241.007,452.002,241.007,11.9915,0.0,11.9915,9.17076,0.741958,2.06415,0.000822909,0.000126602,2.81766e-06,0.0136835
451.5,259.796,451.9017,259.796,9.42563,0.0,9.42563,7.084,0.558134,1.7713,0.000664651,0.000100865,2.19389e-06,0.0114269
451.4,11.7655,451.802,11.7655,7.4024,0.0,7.4024,5.45545,0.41823,1.51857,0.000535924,8.02208e-05,1.70515e-06,0.00952841
451.3,191.491,451.702,191.491,5.80919,0.0,5.80919,4.18795,0.312159,1.30065,0.000431396,6.36907e-05,1.3229e-06,0.00793352
451.2,234.011,451.602,234.011,4.55624,0.0,4.55624,3.20432,0.232054,1.11287,0.000346666,5.04785e-05,1.02449e-06,0.00659567
451.1,43.0,451.502,43.0,3.57215,0.0,3.57215,2.44334,0.1718,0.951213,0.000278102,3.9937e-05,7.91956e-07,0.00547512
451.0,0.0,451.4017,0.0,2.80013,0.0,2.80013,1.85651,0.126664,0.812161,0.000222717,3.15414e-05,6.11095e-07,0.004538
450.9,73.0,451.302,73.0,2.19512,0.0,2.19512,1.4055,0.0929929,0.692667,0.000178055,2.48669e-05,4.70683e-07,0.00375549
450.8,119.0,451.202,119.0,1.72143,0.0,1.72143,1.0601,0.0679815,0.590081,0.000142104,1.95701e-05,3.61874e-07,0.00310309
450.7,93.0,451.102,93.0,1.35081,0.0,1.35081,0.796536,0.0494826,0.502101,0.000113216,1.53743e-05,2.77713e-07,0.00256002
450.6,186.0,451.002,186.0,1.06097,0.0,1.06097,0.596171,0.0358602,0.426728,9.00437e-05,1.20567e-05,2.12736e-07,0.00210866
450.5,164.0,450.9017,164.0,0.834351,0.0,0.834351,0.444437,0.0258733,0.362226,7.14896e-05,9.43812e-06,1.62664e-07,0.00173414
450.4,153.0,450.802,153.0,0.657146,0.0,0.657146,0.329983,0.0185844,0.30709,5.66595e-05,7.37511e-06,1.24151e-07,0.00142386
450.3,262.0,450.702,262.0,0.518522,0.0,0.518522,0.243999,0.0132888,0.260016,4.48272e-05,5.75273e-06,9.45818e-08,0.00116722
450.2,181.0,450.602,181.0,0.409995,0.0,0.409995,0.179668,0.00945902,0.219873,3.54036e-05,4.4792e-06,7.19231e-08,0.000955297
450.1,227.0,450.502,227.0,0.324936,0.0,0.324936,0.131739,0.00670213,0.185683,2.79118e-05,3.48134e-06,5.45922e-08,0.000780582
450.0,118.0,450.4017,118.0,0.25817,0.0,0.25817,0.0961819,0.00472683,0.1566,2.19665e-05,2.70091e-06,4.1361e-08,0.00063678