File: XPS/LG4X-result/MX-UT-0.1-Cl2p.csv
#No of rows lightened (2D detector)1(if not using 2D detector, value is 1 and can be ignored!),,,,,,,,
raw_x,raw_y,corrected x,data-bg,sum_components,bg,sum_fit,bg_shirley_,Ti-Cl,Ti-Cl (2p Â½)
208,39,208.4255,-0.163705,2.15168,39.1637,41.3154,39.1637,0.867233,1.28445
207.9,87,208.3255,47.8363,2.20415,39.1637,41.3679,39.1637,0.886043,1.31811
207.8,61,208.2255,21.8363,2.25859,39.1637,41.4223,39.1637,0.905472,1.35311
207.7,42,208.1255,2.83629,2.31508,39.1637,41.4788,39.1637,0.925549,1.38953
207.6,21,208.0255,-18.1637,2.37375,39.1637,41.5375,39.1637,0.946302,1.42745
207.5,32,207.9255,-7.16371,2.4347,39.1637,41.5984,39.1637,0.967762,1.46694
207.4,41,207.8255,1.83629,2.49805,39.1637,41.6618,39.1637,0.989961,1.50809
207.3,55,207.7255,15.8363,2.56394,39.1637,41.7276,39.1637,1.01293,1.55101
207.2,50,207.6255,10.8363,2.6325,39.1637,41.7962,39.1637,1.03672,1.59578
207.1,70,207.5255,30.8363,2.70388,39.1637,41.8676,39.1637,1.06135,1.64253
207,35,207.4255,-4.16371,2.77824,39.1637,41.9419,39.1637,1.08687,1.69137
206.9,16,207.3255,-23.1637,2.85575,39.1637,42.0195,39.1637,1.11333,1.74242
206.8,1,207.2255,-38.1637,2.93659,39.1637,42.1003,39.1637,1.14077,1.79583
206.7,44,207.1255,4.83629,3.02096,39.1637,42.1847,39.1637,1.16923,1.85173
206.6,30,207.0255,-9.16371,3.10907,39.1637,42.2728,39.1637,1.19878,1.91029
206.5,44,206.9255,4.83629,3.20115,39.1637,42.3649,39.1637,1.22946,1.97169
206.4,35,206.8255,-4.16371,3.29743,39.1637,42.4611,39.1637,1.26134,2.0361
206.3,39,206.7255,-0.163705,3.3982,39.1637,42.5619,39.1637,1.29447,2.10372
206.2,73,206.6255,33.8363,3.50372,39.1637,42.6674,39.1637,1.32893,2.17479
206.1,74,206.5255,34.8363,3.61432,39.1637,42.778,39.1637,1.36479,2.24952
206,7,206.4255,-32.1637,3.73032,39.1637,42.894,39.1637,1.40213,2.32819
205.9,38,206.3255,-1.16371,3.85209,39.1637,43.0158,39.1637,1.44102,2.41107
205.8,3,206.2255,-36.1637,3.98003,39.1637,43.1437,39.1637,1.48155,2.49847
205.7,0,206.1255,-39.1637,4.11456,39.1637,43.2783,39.1637,1.52383,2.59073
205.6,7.00076,206.0255,-32.1629,4.25616,39.1637,43.4199,39.1637,1.56794,2.68821
205.5,28.0046,205.9255,-11.1591,4.40533,39.1637,43.569,39.1637,1.61401,2.79132
205.4,70.0153,205.8255,30.8516,4.56264,39.1637,43.7263,39.1637,1.66214,2.9005
205.3,84.0321,205.7255,44.8684,4.7287,39.1637,43.8924,39.1637,1.71246,3.01625
205.2,13.0427,205.6255,-26.121,4.90419,39.1637,44.0679,39.1637,1.7651,3.13908
205.1,30.0474,205.5255,-9.11626,5.08984,39.1637,44.2535,39.1637,1.82022,3.26962
205,72.0586,205.4255,32.8949,5.28648,39.1637,44.4502,39.1637,1.87798,3.4085
204.9,67.0738,205.3255,27.9101,5.495,39.1637,44.6587,39.1637,1.93853,3.55647
204.8,56.0873,205.2255,16.9235,5.7164,39.1637,44.8801,39.1637,2.00207,3.71434
204.7,73.1014,205.1255,33.9377,5.9518,39.1637,45.1155,39.1637,2.06879,3.88301
204.6,25.1121,205.0255,-14.0516,6.20242,39.1637,45.3661,39.1637,2.13892,4.0635
204.5,39.1191,204.9255,-0.044593,6.46963,39.1637,45.6333,39.1637,2.21269,4.25694
204.4,89.1331,204.8255,49.9694,6.75498,39.1637,45.9187,39.1637,2.29036,4.46463
204.3,58.1492,204.7255,18.9855,7.06019,39.1637,46.2239,39.1637,2.3722,4.68798
204.2,56.1617,204.6255,16.998,7.38718,39.1637,46.5509,39.1637,2.45853,4.92865
204.1,55.1739,204.5255,16.0102,7.73815,39.1637,46.9019,39.1637,2.54968,5.18847
204,59.1864,204.4255,20.0227,8.11556,39.1637,47.2793,39.1637,2.64602,5.46954
203.9,48.1981,204.3255,9.03439,8.52222,39.1637,47.6859,39.1637,2.74794,5.77427
203.8,38.2075,204.2255,-0.956173,8.96132,39.1637,48.125,39.1637,2.8559,6.10542
203.7,24.2144,204.1255,-14.9494,9.43654,39.1637,48.6002,39.1637,2.97038,6.46616
203.6,85.2263,204.0255,46.0626,9.95207,39.1637,49.1158,39.1637,3.09192,6.86015
203.5,70.2433,203.9255,31.0796,10.5128,39.1637,49.6765,39.1637,3.22111,7.29166
203.4,94.2613,203.8255,55.0976,11.1243,39.1637,50.288,39.1637,3.35862,7.76566
203.3,68.279,203.7255,29.1153,11.7932,39.1637,50.9569,39.1637,3.50518,8.28798
203.2,74.2946,203.6255,35.1309,12.5271,39.1637,51.6908,39.1637,3.66161,8.86552
203.1,46.3078,203.5255,7.14407,13.3353,39.1637,52.499,39.1637,3.82881,9.50645
203,33.3165,203.4255,-5.84723,14.2284,39.1637,53.3921,39.1637,4.00781,10.2205
202.9,44.325,203.3255,5.16125,15.2193,39.1637,54.383,39.1637,4.19976,11.0196
202.8,30.3331,203.2255,-8.83059,16.3237,39.1637,55.4874,39.1637,4.40593,11.9178
202.7,57.3427,203.1255,18.179,17.5605,39.1637,56.7242,39.1637,4.62779,12.9327
202.6,61.3557,203.0255,22.192,18.9528,39.1637,58.1165,39.1637,4.86699,14.0859
202.5,52.3681,202.9255,13.2044,20.5296,39.1637,59.6933,39.1637,5.12538,15.4042
202.4,64.3808,202.8255,25.2171,22.3269,39.1637,61.4906,39.1637,5.4051,16.9218
202.3,92.398,202.7255,53.2343,24.3908,39.1637,63.5545,39.1637,5.7086,18.6822
202.2,60.4147,202.6255,21.251,26.7805,39.1637,65.9442,39.1637,6.03867,20.7418
202.1,59.4278,202.5255,20.264,29.5738,39.1637,68.7375,39.1637,6.39854,23.1752
202,95.4447,202.4255,56.281,32.8742,39.1637,72.0379,39.1637,6.79196,26.0823
201.9,68.4626,202.3255,29.2989,36.8223,39.1637,75.986,39.1637,7.22329,29.599
201.8,103.481,202.2255,64.3177,41.6109,39.1637,80.7746,39.1637,7.69763,33.9133
201.7,98.5034,202.1255,59.3397,47.5082,39.1637,86.6719,39.1637,8.22099,39.2872
201.6,98.525,202.0255,59.3613,54.8866,39.1637,94.0503,39.1637,8.80047,46.0862
201.5,128.55,201.9255,89.3861,64.2575,39.1637,103.421,39.1637,9.44455,54.8129
201.4,109.576,201.8255,70.4121,76.3015,39.1637,115.465,39.1637,10.1634,66.138
201.3,146.604,201.7255,107.44,91.8745,39.1637,131.038,39.1637,10.9693,80.9051
201.2,124.633,201.6255,85.4697,111.951,39.1637,151.115,39.1637,11.8773,100.074
201.1,153.664,201.5255,114.5,137.452,39.1637,176.616,39.1637,12.9059,124.546
201,206.703,201.4255,167.539,168.897,39.1637,208.061,39.1637,14.078,154.819
200.9,252.753,201.3255,213.59,205.871,39.1637,245.034,39.1637,15.4226,190.448
200.8,277.811,201.2255,238.648,246.398,39.1637,285.562,39.1637,16.9768,229.421
200.7,285.873,201.1255,246.709,286.491,39.1637,325.655,39.1637,18.7885,267.702
200.6,366.944,201.0255,327.781,320.292,39.1637,359.456,39.1637,20.9214,299.371
200.5,411.029,200.9255,371.866,341.168,39.1637,380.332,39.1637,23.4614,317.707
200.4,399.118,200.8255,359.954,343.718,39.1637,382.882,39.1637,26.5275,317.191
200.3,378.203,200.7255,339.039,326.021,39.1637,365.185,39.1637,30.29,295.731
200.2,320.279,200.6255,281.115,290.969,39.1637,330.133,39.1637,34.9982,255.971
200.1,274.344,200.5255,235.18,245.806,39.1637,284.97,39.1637,41.0274,204.779
200,193.395,200.4255,154.231,199.93,39.1637,239.094,39.1637,48.9497,150.98
199.9,212.439,200.3255,173.276,162.081,39.1637,201.244,39.1637,59.6353,102.445
199.8,180.482,200.2255,141.319,138.36,39.1637,177.524,39.1637,74.3778,63.9823
199.7,177.521,200.1255,138.358,131.851,39.1637,171.014,39.1637,95.0079,36.8427
199.6,225.565,200.0255,186.402,143.532,39.1637,182.696,39.1637,123.91,19.6223
199.5,214.614,199.9255,175.45,173.497,39.1637,212.661,39.1637,163.786,9.7107
199.4,267.666,199.8255,228.503,221.469,39.1637,260.633,39.1637,216.979,4.49093
199.3,348.734,199.7255,309.57,286.145,39.1637,325.309,39.1637,284.192,1.95331
199.2,405.816,199.6255,366.652,363.572,39.1637,402.736,39.1637,362.768,0.804081
199.1,454.91,199.5255,415.746,445.438,39.1637,484.602,39.1637,445.123,0.314985
199,536.018,199.4255,496.855,518.618,39.1637,557.781,39.1637,518.5,0.117884
198.9,631.146,199.3255,591.982,567.24,39.1637,606.404,39.1637,567.198,0.0422394
198.8,585.279,199.2255,546.115,577.421,39.1637,616.584,39.1637,577.406,0.0144962
198.7,604.409,199.1255,565.245,542.958,39.1637,582.122,39.1637,542.954,0.00476099
198.6,521.532,199.0255,482.368,468.871,39.1637,508.034,39.1637,468.869,0.00149406
198.5,402.633,198.9255,363.469,370.251,39.1637,409.415,39.1637,370.251,0.000447168
198.4,281.707,198.8255,242.544,266.631,39.1637,305.795,39.1637,266.631,0.00012742
198.3,230.763,198.7255,191.6,174.9,39.1637,214.064,39.1637,174.9,3.45124e-05
198.2,175.808,198.6255,136.644,104.556,39.1637,143.719,39.1637,104.556,8.87344e-06
198.1,64.8341,198.5255,25.6704,57.0937,39.1637,96.2574,39.1637,57.0937,2.16318e-06
198,43.846,198.4255,4.6823,28.6013,39.1637,67.7649,39.1637,28.6013,4.99531e-07
197.9,80.8596,198.3255,41.6959,13.2295,39.1637,52.3932,39.1637,13.2295,1.09182e-07
197.8,49.8739,198.2255,10.7102,5.69848,39.1637,44.8622,39.1637,5.69848,2.25718e-08
197.7,36.8834,198.1255,-2.28032,2.30885,39.1637,41.4725,39.1637,2.30885,4.41119e-09
197.6,68.8949,198.0255,29.7312,0.889158,39.1637,40.0528,39.1637,0.889158,8.1452e-10
197.5,74.9106,197.9255,35.747,0.328449,39.1637,39.4921,39.1637,0.328449,1.42042e-10
197.4,29.9221,197.8255,-9.2416,0.117101,39.1637,39.2808,39.1637,0.117101,2.33851e-11
197.3,23.928,197.7255,-15.2357,0.040396,39.1637,39.2041,39.1637,0.040396,3.63339e-12
197.2,58.937,197.6255,19.7733,0.0134721,39.1637,39.1772,39.1637,0.0134721,5.32402e-13
197.1,28.9466,197.5255,-10.2171,0.0043309,39.1637,39.168,39.1637,0.0043309,7.36675e-14
197,29.9531,197.4255,-9.21062,0.00133706,39.1637,39.165,39.1637,0.00133706,9.72583e-15
196.9,15.9581,197.3255,-23.2056,0.000395006,39.1637,39.1641,39.1637,0.000395006,1.24429e-15
196.8,62.9667,197.2255,23.803,0.000111335,39.1637,39.1638,39.1637,0.000111335,0
196.7,17.9755,197.1255,-21.1881,2.98675e-05,39.1637,39.1637,39.1637,2.98675e-05,0
196.6,15.9793,197.0255,-23.1844,7.61215e-06,39.1637,39.1637,39.1637,7.61215e-06,0
196.5,14.9826,196.9255,-24.1811,1.8405e-06,39.1637,39.1637,39.1637,1.8405e-06,0
196.4,36.9883,196.8255,-2.17537,4.21689e-07,39.1637,39.1637,39.1637,4.21689e-07,0
196.3,23.995,196.7255,-15.1687,9.14709e-08,39.1637,39.1637,39.1637,9.14709e-08,0
196.2,22,196.6255,-17.1637,1.87708e-08,39.1637,39.1637,39.1637,1.87708e-08,0
196.1,0,196.5255,-39.1637,3.6418e-09,39.1637,39.1637,39.1637,3.6418e-09,0
196,13,196.4255,-26.1637,6.67661e-10,39.1637,39.1637,39.1637,6.6766e-10,0
195.9,20,196.3255,-19.1637,1.15612e-10,39.1637,39.1637,39.1637,1.15611e-10,0
195.8,49,196.2255,9.83631,1.89004e-11,39.1637,39.1637,39.1637,1.89004e-11,0
195.7,39,196.1255,-0.163685,2.91323e-12,39.1637,39.1637,39.1637,2.91626e-12,0
195.6,2,196.0255,-37.1637,4.26326e-13,39.1637,39.1637,39.1637,4.24752e-13,0
195.5,29,195.9255,-10.1637,5.68434e-14,39.1637,39.1637,39.1637,5.81763e-14,0
195.4,26,195.8255,-13.1637,7.10543e-15,39.1637,39.1637,39.1637,7.3466e-15,0
195.3,47,195.7255,7.83631,0,39.1637,39.1637,39.1637,8.10748e-16,0
195.2,55,195.6255,15.8363,0,39.1637,39.1637,39.1637,0,0
195.1,48,195.5255,8.83631,0,39.1637,39.1637,39.1637,0,0
195,35,195.4255,-4.16369,0,39.1637,39.1637,39.1637,0,0