File: XPS/LG4X-result/MX-UT-0.1-C1s.csv
#No of rows lightened (2D detector)1(if not using 2D detector, value is 1 and can be ignored!)
raw_x,raw_y,corrected x,data-bg,sum_components,bg,sum_fit,C=C,pi-pi*,pi-pi*2,C-C,C-O,C=O,O-C=O,TiC
295.0,46.0,295.4255,46.0,48.2141,0.0,48.2141,16.9615,0.0339524,19.4953,8.96982,6.85683e-169,1.26411,1.44719,0.0422906
294.9,35.0,295.326,35.0,50.046,0.0,50.046,17.2758,0.0523594,20.7305,9.15172,5.10017e-165,1.29823,1.49449,0.0429288
294.8,1.0,295.225,1.0,51.8493,0.0,51.8493,17.5989,0.0798874,21.9098,9.33925,3.42387e-161,1.33377,1.54414,0.0435815
294.7,8.0,295.126,8.0,53.603,0.0,53.603,17.9311,0.120593,23.0073,9.53265,2.07454e-157,1.37079,1.59629,0.0442493
294.6,79.0,295.025,79.0,55.2882,0.0,55.2882,18.2729,0.180104,23.9977,9.73216,1.13448e-153,1.40939,1.65111,0.0449325
294.5,34.0,294.9255,34.0,56.8893,0.0,56.8893,18.6245,0.266125,24.8566,9.93806,5.59944e-150,1.44966,1.70878,0.0456317
294.4,0.0,294.826,0.0,58.3956,0.0,58.3956,18.9863,0.389052,25.5621,10.1506,2.49438e-146,1.49169,1.76951,0.0463473
294.3,87.1381,294.725,87.1381,59.8032,0.0,59.8032,19.3588,0.562715,26.0954,10.3701,1.00289e-142,1.5356,1.83352,0.0470799
294.2,95.4273,294.626,95.4273,61.1169,0.0,61.1169,19.7424,0.805247,26.442,10.5969,3.63925e-139,1.5815,1.90103,0.04783
294.1,50.6587,294.525,50.6587,62.3515,0.0,62.3515,20.1375,1.14006,26.5923,10.8312,1.19191e-135,1.6295,1.97232,0.0485982
294.0,40.8036,294.4255,40.8036,63.5339,0.0,63.5339,20.5446,1.59694,26.542,11.0735,3.52328e-132,1.67974,2.04766,0.049385
293.9,29.9157,294.326,29.9157,64.704,0.0,64.704,20.9641,2.21313,26.2927,11.3241,9.39986e-129,1.73237,2.12737,0.0501911
293.8,17.9916,294.225,17.9916,65.9161,0.0,65.9161,21.3967,3.03448,25.8513,11.5834,2.26343e-125,1.78754,2.21178,0.0510171
293.7,44.0899,294.126,44.0899,67.2393,0.0,67.2393,21.8427,4.11645,25.2298,11.8518,4.91908e-122,1.84542,2.30127,0.0518637
293.6,17.187,294.025,17.187,68.7576,0.0,68.7576,22.3029,5.52483,24.445,12.1297,9.64877e-119,1.90618,2.39626,0.0527315
293.5,46.2876,293.9255,46.2876,70.5699,0.0,70.5699,22.7777,7.33627,23.5175,12.4176,1.70817e-115,1.97004,2.4972,0.0536213
293.4,59.4551,293.826,59.4551,72.7886,0.0,72.7886,23.2679,9.6381,22.4704,12.7159,2.72937e-112,2.0372,2.60459,0.0545338
293.3,93.6978,293.725,93.6978,75.5381,0.0,75.5381,23.7741,12.5276,21.3288,13.0253,3.93608e-109,2.10789,2.71899,0.0554698
293.2,105.013,293.626,105.013,78.9516,0.0,78.9516,24.297,16.1102,20.1183,13.3462,5.12315e-106,2.18239,2.84101,0.0564301
293.1,75.2982,293.525,75.2982,83.168,0.0,83.168,24.8373,20.4972,18.8644,13.6793,6.01841e-103,2.26095,2.97133,0.0574156
293.0,80.5451,293.4255,80.5451,88.327,0.0,88.327,25.3958,25.8017,17.5912,14.0252,6.38113e-100,2.3439,3.11073,0.0584271
292.9,111.85,293.326,111.85,94.5634,0.0,94.5634,25.9734,32.1337,16.3207,14.3845,6.10639e-97,2.43157,3.26004,0.0594656
292.8,54.1129,293.225,54.1129,102.001,0.0,102.001,26.571,39.5944,15.0724,14.7579,5.27403e-94,2.52433,3.42023,0.0605321
292.7,98.3544,293.126,98.3544,110.744,0.0,110.744,27.1894,48.2687,13.8629,15.1463,4.11123e-91,2.62258,3.59235,0.0616275
292.6,139.732,293.025,139.732,120.871,0.0,120.871,27.8296,58.2179,12.7055,15.5504,2.8925e-88,2.72679,3.7776,0.0627529
292.5,161.208,292.9255,161.208,132.425,0.0,132.425,28.4928,69.4715,11.6104,15.9712,1.83673e-85,2.83744,3.97734,0.0639095
292.4,171.736,292.826,171.736,145.407,0.0,145.407,29.1799,82.0195,10.5848,16.4094,1.05266e-82,2.95509,4.19308,0.0650983
292.3,141.232,292.725,141.232,159.769,0.0,159.769,29.8922,95.8046,9.63294,16.8663,5.44506e-80,3.08035,4.42656,0.0663206
292.2,158.707,292.626,158.707,175.409,0.0,175.409,30.6309,110.717,8.75667,17.3428,2.54208e-77,3.21391,4.67972,0.0675776
292.1,197.271,292.525,197.271,192.164,0.0,192.164,31.3973,126.591,7.95573,17.84,1.07114e-74,3.35654,4.95481,0.0688708
292.0,194.892,292.4255,194.892,209.817,0.0,209.817,32.1928,143.203,7.22815,18.3593,4.07356e-72,3.50908,5.25436,0.0702015
291.9,239.581,292.326,239.581,228.089,0.0,228.089,33.019,160.272,6.57068,18.902,1.39822e-69,3.67249,5.5813,0.0715711
291.8,268.385,292.225,268.385,246.656,0.0,246.656,33.8774,177.47,5.97913,19.4695,4.33157e-67,3.84786,5.93898,0.0729811
291.7,244.197,292.126,244.197,265.148,0.0,265.148,34.7697,194.424,5.44872,20.0634,1.21112e-64,4.03642,6.33127,0.0744333
291.6,281.03,292.025,281.03,283.17,0.0,283.17,35.6978,210.735,4.97435,20.6854,3.05633e-62,4.23953,6.76265,0.0759293
291.5,303.956,291.9255,303.956,300.312,0.0,300.312,36.6635,225.985,4.55085,21.3373,6.96122e-60,4.45876,7.23831,0.0774709
291.4,290.899,291.826,290.899,316.167,0.0,316.167,37.6689,239.764,4.1731,22.0212,1.43101e-57,4.69591,7.76431,0.0790598
291.3,294.827,291.725,294.827,330.353,0.0,330.353,38.7163,251.68,3.83625,22.7391,2.65503e-55,4.953,8.34773,0.0806982
291.2,320.802,291.626,320.802,342.528,0.0,342.528,39.808,261.379,3.53573,23.4934,4.44598e-53,5.23237,8.99686,0.0823881
291.1,342.853,291.525,342.853,352.41,0.0,352.41,40.9465,268.568,3.26736,24.2867,6.7195e-51,5.53667,9.72148,0.0841317
291.0,357.964,291.4255,357.964,359.792,0.0,359.792,42.1346,273.021,3.02733,25.1218,9.16596e-49,5.86899,10.5331,0.0859312
290.9,380.133,291.326,380.133,364.553,0.0,364.553,43.3752,274.598,2.81223,26.0017,1.12847e-46,6.23283,11.4455,0.087789
290.8,357.301,291.225,357.301,366.665,0.0,366.665,44.6714,273.248,2.61904,26.9297,1.25393e-44,6.63225,12.4748,0.0897079
290.7,417.529,291.126,417.529,366.201,0.0,366.201,46.0265,269.016,2.44509,27.9096,1.25756e-42,7.07189,13.6404,0.0916903
290.6,367.773,291.025,367.773,363.328,0.0,363.328,47.4443,262.034,2.28804,28.9454,1.1383e-40,7.55711,14.9654,0.0937392
290.5,344.902,290.9255,344.902,358.303,0.0,358.303,48.9287,252.52,2.14586,30.0415,9.29935e-39,8.09402,16.4772,0.0958576
290.4,342.992,290.826,342.992,351.465,0.0,351.465,50.4838,240.766,2.01678,31.2027,6.85679e-37,8.6896,18.2086,0.0980487
290.3,318.039,290.725,318.039,343.217,0.0,343.217,52.1142,227.118,1.89926,32.4346,4.56311e-35,9.3518,20.1983,0.100316
290.2,331.068,290.626,331.068,334.012,0.0,334.012,53.825,211.968,1.79197,33.743,2.74077e-33,10.0896,22.4919,0.102662
290.1,360.163,290.525,360.163,324.335,0.0,324.335,55.6214,195.725,1.69375,35.1347,1.48578e-31,10.913,25.1423,0.105092
290.0,352.292,290.4255,352.292,314.686,0.0,314.686,57.5093,178.806,1.6036,36.617,7.26957e-30,11.8331,28.209,0.10761
289.9,292.313,290.326,292.313,305.556,0.0,305.556,59.495,161.614,1.52066,38.1981,3.21021e-28,12.8621,31.7567,0.110219
289.8,323.288,290.225,323.288,297.415,0.0,297.415,61.5854,144.522,1.44415,39.8873,1.27947e-26,14.0131,35.8505,0.112924
289.7,337.335,290.126,337.335,290.682,0.0,290.682,63.788,127.864,1.37343,41.6948,4.60254e-25,15.2999,40.5463,0.11573
289.6,337.404,290.025,337.404,285.705,0.0,285.705,66.1108,111.923,1.3079,43.632,1.49429e-23,16.737,45.8753,0.118641
289.5,278.379,289.9255,278.379,282.729,0.0,282.729,68.563,96.929,1.24707,45.7119,4.37871e-22,18.3386,51.8178,0.121665
289.4,303.301,289.826,303.301,281.856,0.0,281.856,71.1542,83.0513,1.19049,47.9488,1.15805e-20,20.1186,58.268,0.124805
289.3,293.246,289.725,293.246,283.008,0.0,283.008,73.8951,70.4042,1.13776,50.3591,2.76427e-19,22.0895,64.9945,0.128068
289.2,276.148,289.626,276.148,285.898,0.0,285.898,76.7975,59.0486,1.08853,52.9608,5.9553e-18,24.2619,71.6088,0.131462
289.1,306.071,289.525,306.071,290.037,0.0,290.037,79.8745,48.9983,1.0425,55.7745,1.15797e-16,26.6432,77.5692,0.134992
289.0,298.028,289.4255,298.028,294.807,0.0,294.807,83.1402,40.2264,0.999381,58.8229,2.0322e-15,29.2368,82.2422,0.138666
288.9,291.962,289.326,291.962,299.589,0.0,299.589,86.6104,32.6739,0.958938,62.132,3.21887e-14,32.0405,85.0312,0.142492
288.8,252.825,289.225,252.825,303.941,0.0,303.941,90.3026,26.2573,0.920946,65.7303,4.60163e-13,35.046,85.5372,0.146479
288.7,278.668,289.126,278.668,307.72,0.0,307.72,94.236,20.8765,0.885208,69.65,5.93734e-12,38.2374,83.6842,0.150636
288.6,284.56,289.025,284.56,311.123,0.0,311.123,98.4323,16.422,0.851546,73.9268,6.91423e-11,41.5907,79.7449,0.154973
288.5,272.442,288.9255,272.442,314.6,0.0,314.6,102.915,12.7807,0.819799,78.6003,7.26719e-10,45.0729,74.2516,0.1595
288.4,300.35,288.826,300.35,318.704,0.0,318.704,107.712,9.84103,0.789824,83.7141,6.89383e-09,48.6419,67.8409,0.164228
288.3,279.268,288.725,279.268,323.948,0.0,323.948,112.852,7.49699,0.761487,89.3161,5.90236e-08,52.2471,61.1051,0.169169
288.2,357.277,288.626,357.277,330.717,0.0,330.717,118.369,5.65057,0.734671,95.4583,4.56102e-07,55.8297,54.5008,0.174337
288.1,366.423,288.525,366.423,339.249,0.0,339.249,124.301,4.21364,0.709267,102.197,3.18105e-06,59.3243,48.3237,0.179746
288.0,323.516,288.4255,323.516,349.652,0.0,349.652,130.691,3.10872,0.685176,109.593,2.00239e-05,62.6609,42.7281,0.185411
287.9,371.618,288.326,371.618,361.95,0.0,361.95,137.586,2.26916,0.662308,117.709,0.000113763,65.7669,37.7654,0.191348
287.8,400.841,288.225,400.841,376.124,0.0,376.124,145.042,1.63874,0.64058,126.611,0.000583339,68.5704,33.4222,0.197575
287.7,371.064,288.126,371.064,392.142,0.0,392.142,153.122,1.17088,0.619917,136.369,0.00269969,71.0024,29.6507,0.204111
287.6,399.285,288.025,399.285,409.986,0.0,409.986,161.896,0.827702,0.60025,147.051,0.0112766,73.0006,26.3881,0.210978
287.5,437.611,287.9255,437.611,429.674,0.0,429.674,171.448,0.578889,0.581515,158.725,0.0425122,74.5118,23.5688,0.218197
287.4,476.058,287.826,476.058,451.285,0.0,451.285,181.87,0.400568,0.563653,171.455,0.144651,75.4949,21.1308,0.225793
287.3,492.593,287.725,492.593,475.013,0.0,475.013,193.274,0.274231,0.546611,185.3,0.44422,75.9226,19.0182,0.233794
287.2,504.172,287.626,504.172,501.252,0.0,501.252,205.785,0.185745,0.530338,200.312,1.23125,75.7827,17.1824,0.242228
287.1,579.889,287.525,579.889,530.716,0.0,530.716,219.553,0.124473,0.514788,216.531,3.08012,75.0793,15.5818,0.251127
287.0,583.733,287.4255,583.733,564.545,0.0,564.545,234.752,0.0825268,0.499919,233.982,6.9544,73.832,14.1813,0.260526
286.9,581.579,287.326,581.579,604.268,0.0,604.268,251.586,0.0541344,0.485691,252.673,14.1717,72.0752,12.9511,0.270463
286.8,662.55,287.225,662.55,651.467,0.0,651.467,270.301,0.0351326,0.472067,272.59,26.0649,69.8563,11.8666,0.280981
286.7,679.677,287.126,679.677,707.061,0.0,707.061,291.186,0.0225584,0.459014,293.694,43.2675,67.2333,10.9068,0.292125
286.6,787,287.025,787,770.426,0.0,770.426,314.592,0.0143306,0.446499,315.919,64.8245,64.2721,10.0543,0.303947
286.5,903.679,286.9255,903.679,838.862,0.0,838.862,340.94,0.00900699,0.434494,339.167,87.6571,61.0435,9.29425,0.316501
286.4,933.59,286.826,933.59,908.029,0.0,908.029,370.745,0.00560086,0.42297,363.309,106.981,57.6202,8.6144,0.329852
286.3,966.6,286.725,966.6,973.5,0.0,973.5,404.64,0.0034458,0.411903,388.181,117.841,54.0738,8.00422,0.344066
286.2,998.714,286.626,998.714,1032.83,0.0,1032.83,443.406,0.00209741,0.401267,413.583,117.154,50.4723,7.45481,0.35922
286.1,1084.01,286.525,1084.01,1087.03,0.0,1087.03,488.018,0.0012631,0.391041,439.285,105.122,46.8781,6.9586,0.3754
286.0,1168.58,286.4255,1168.58,1140.49,0.0,1140.49,539.702,0.000752576,0.381205,465.024,85.1327,43.346,6.50912,0.3927
285.9,1266.44,286.326,1266.44,1199.56,0.0,1199.56,600.015,0.000443632,0.371737,490.509,62.226,39.9225,6.10084,0.411226
285.8,1326.55,286.225,1326.55,1270.6,0.0,1270.6,670.952,0.000258734,0.36262,515.427,41.0506,36.6453,5.72899,0.431098
285.7,1312.73,286.126,1312.73,1358.72,0.0,1358.72,755.091,0.000149295,0.353837,539.448,24.442,33.5429,5.38945,0.452448
285.6,1497.18,286.025,1497.18,1467.71,0.0,1467.71,855.807,8.52307e-05,0.345371,562.234,13.1349,30.6351,5.07867,0.475427
285.5,1556.02,285.9255,1556.02,1600.95,0.0,1600.95,977.571,4.814e-05,0.337208,583.445,6.3707,27.9342,4.79354,0.500206
285.4,1688.16,285.826,1688.16,1762.77,0.0,1762.77,1126.4,2.69014e-05,0.329332,602.749,2.78881,25.4452,4.53137,0.526979
285.3,1910.86,285.725,1910.86,1959.82,0.0,1959.82,1310.55,1.48732e-05,0.321731,619.832,1.10185,23.1674,4.2898,0.555965
285.2,2192.36,285.626,2192.36,2202.49,0.0,2202.49,1541.62,8.13566e-06,0.314391,634.406,0.392914,21.0952,4.06677,0.587416
285.1,2486.77,285.525,2486.77,2506.81,0.0,2506.81,1836.46,4.40292e-06,0.307301,646.217,0.126457,19.2197,3.86044,0.621621
285.0,2756.08,285.4255,2756.08,2897.67,0.0,2897.67,2220.41,2.35748e-06,0.30045,655.058,0.0367333,17.5291,3.66922,0.658911
284.9,3391.82,285.326,3391.82,3414.72,0.0,3414.72,2733.45,1.24886e-06,0.293827,660.768,0.00963049,16.0103,3.49168,0.699671
284.8,4018.56,285.225,4018.56,4123.93,0.0,4123.93,3441.67,6.54546e-07,0.287421,663.244,0.00227881,14.6489,3.32657,0.744346
284.7,5233.22,285.126,5233.22,5138.91,0.0,5138.91,4458.79,3.39411e-07,0.281224,662.439,0.000486675,13.4307,3.17277,0.793454
284.6,6805.29,285.025,6805.29,6653.33,0.0,6653.33,5978.47,1.74129e-07,0.275226,658.369,9.38082e-05,12.3414,3.02928,0.847607
284.5,9060.43,284.9255,9060.43,8952.36,0.0,8952.36,8285.82,8.83842e-08,0.269419,651.109,1.63198e-05,11.3675,2.89521,0.90752
284.4,12241.2,284.826,12241.2,12272.3,0.0,12272.3,11617,4.43852e-08,0.263795,640.789,2.56247e-06,10.4965,2.76976,0.974046
284.3,16259.3,284.725,16259.3,16323,0.0,16323,15681.8,2.20527e-08,0.258346,627.595,3.63141e-07,9.71655,2.65221,1.0482
284.2,19721.3,284.626,19721.3,19728,0.0,19728,19103.3,1.08404e-08,0.253064,611.758,4.64475e-08,9.01714,2.54192,1.1312
284.1,20436,284.525,20436,20462.1,0.0,20462.1,19856.3,5.27212e-09,0.247944,593.549,5.36192e-09,8.38877,2.43831,1.22451
284.0,17761.5,284.4255,17761.5,17661.3,0.0,17661.3,17076.3,2.5368e-09,0.242979,573.27,5.58663e-10,7.82298,2.34085,1.32994
283.9,12690.7,284.326,12690.7,12714.5,0.0,12714.5,12152,1.20767e-09,0.238161,551.245,5.25353e-11,7.31232,2.24908,1.44968
283.8,7887.32,284.225,7887.32,7918.41,0.0,7918.41,7379.77,5.68811e-10,0.233487,527.811,4.45886e-12,6.85024,2.16256,1.58647
283.7,4445.86,284.126,4445.86,4555.17,0.0,4555.17,4041.37,2.65062e-10,0.228949,503.308,3.4156e-13,6.43101,2.0809,1.74374
283.6,2601.02,284.025,2601.02,2611.53,0.0,2611.53,2123.25,1.22204e-10,0.224543,478.072,2.36147e-14,6.04964,2.00375,1.92583
283.5,1674.8,283.9255,1674.8,1581.63,0.0,1581.63,1119.22,5.57423e-11,0.220263,452.425,1.47356e-15,5.70178,1.93078,2.13828
283.4,1220.38,283.826,1220.38,1038.54,0.0,1038.54,602.021,2.51561e-11,0.216105,426.67,8.29899e-17,5.38366,1.8617,2.38835
283.3,872.699,283.725,872.699,740.615,0.0,740.615,329.746,1.12321e-11,0.212064,401.084,4.21846e-18,5.09198,1.79624,2.68558
283.2,666.137,283.626,666.137,568.133,0.0,568.133,182.41,4.96177e-12,0.208136,375.914,1.93532e-19,4.82388,1.73415,3.04282
283.1,495.978,283.525,495.978,462.417,0.0,462.417,101.105,2.16857e-12,0.204316,351.378,8.01355e-21,4.57687,1.6752,3.47766
283.0,408.411,283.4255,408.411,393.64,0.0,393.64,55.8018,9.3771e-13,0.200601,327.655,2.9948e-22,4.34878,1.6192,4.01486
282.9,333.587,283.326,333.587,346.007,0.0,346.007,30.5226,4.01165e-13,0.196987,304.894,1.01014e-23,4.13768,1.56594,4.69013
282.8,304.598,283.225,304.598,310.902,0.0,310.902,16.4866,1.698e-13,0.19347,283.208,3.07515e-25,3.94192,1.51525,5.55682
282.7,294.547,283.126,294.547,283.564,0.0,283.564,8.76929,7.11069e-14,0.190047,262.679,8.44932e-27,3.76001,1.46697,6.69811
282.6,243.399,283.025,243.399,261.392,0.0,261.392,4.58307,2.94608e-14,0.186714,243.36,2.09532e-28,3.59067,1.42095,8.25104
282.5,215.126,282.9255,215.126,243.079,0.0,243.079,2.34926,1.20764e-14,0.183468,225.276,4.68973e-30,3.43273,1.37705,10.4601
282.4,189.767,282.826,189.767,228.227,0.0,228.227,1.17938,4.89767e-15,0.180306,208.431,9.47367e-32,3.28518,1.33515,13.8158
282.3,218.414,282.725,218.414,217.464,0.0,217.464,0.579153,1.96517e-15,0.177226,192.808,1.72727e-33,3.14712,1.29512,19.4582
282.2,224.115,282.626,224.115,213.424,0.0,213.424,0.277913,7.80139e-16,0.174224,178.373,2.84231e-35,3.01773,1.25686,30.3243
282.1,241.853,282.525,241.853,223.182,0.0,223.182,0.130203,3.0641e-16,0.171298,165.081,4.22139e-37,2.89629,1.22026,53.6832
282.0,272.668,282.4255,272.668,260.976,0.0,260.976,0.0595124,1.19067e-16,0.168446,152.876,5.65862e-39,2.78216,1.18523,103.904
281.9,326.618,282.326,326.618,344.146,0.0,344.146,0.026521,4.57764e-17,0.165664,141.697,6.846e-41,2.67475,1.15168,198.43
281.8,481.899,282.225,481.899,472.849,0.0,472.849,0.0115166,1.74121e-17,0.162951,131.477,7.4754e-43,2.57353,1.11953,337.504
281.7,605.622,282.126,605.622,604.572,0.0,604.572,0.00487075,6.55266e-18,0.160304,122.146,7.36722e-45,2.47803,1.0887,478.694
281.6,645.604,282.025,645.604,665.105,0.0,665.105,0.00200549,2.43975e-18,0.157721,113.638,6.55305e-47,2.38783,1.05912,547.861
281.5,606.588,281.9255,606.588,609.98,0.0,609.98,0.000803584,8.98736e-19,0.155201,105.883,5.26084e-49,2.30252,1.03073,500.608
281.4,509.356,281.826,509.356,469.964,0.0,469.964,0.000313242,3.27551e-19,0.15274,98.8169,3.81187e-51,2.22177,1.00346,367.769
281.3,295.631,281.725,295.631,318.971,0.0,318.971,0.00011875,1.18109e-19,0.150338,92.3777,2.49282e-53,2.14525,0.977257,223.32
281.2,198.414,281.626,198.414,208.5,0.0,208.5,4.37698e-05,4.21356e-20,0.147992,86.5069,1.47135e-55,2.07265,0.952062,118.821
281.1,127.931,281.525,127.931,145.22,0.0,145.22,1.56818e-05,1.48722e-20,0.145701,81.1504,7.83814e-58,2.00373,0.927825,60.9919
281.0,98.2893,281.4255,98.2893,112.893,0.0,112.893,5.4601e-06,5.19347e-21,0.143463,76.2581,3.76861e-60,1.93822,0.9045,33.6487
280.9,88.5854,281.326,88.5854,95.748,0.0,95.748,1.84714e-06,1.79433e-21,0.141276,71.7842,1.63538e-62,1.87591,0.88204,21.0646
280.8,77.8491,281.225,77.8491,85.2077,0.0,85.2077,6.07039e-07,6.13344e-22,0.139139,67.687,6.40516e-65,1.81659,0.860404,14.7045
280.7,54.0581,281.126,54.0581,77.6822,0.0,77.6822,1.93765e-07,2.07428e-22,0.13705,63.929,2.26418e-67,1.76007,0.839553,11.0165
280.6,37.2027,281.025,37.2027,71.7665,0.0,71.7665,6.00633e-08,6.94046e-23,0.135008,60.4763,7.22378e-70,1.70617,0.819448,8.62959
280.5,38.3223,280.9255,38.3223,66.8561,0.0,66.8561,1.80784e-08,2.29757e-23,0.133011,57.2983,2.08012e-72,1.65473,0.800055,6.96999
280.4,45.455,280.826,45.455,62.6456,0.0,62.6456,5.28283e-09,7.52505e-24,0.131058,54.3679,5.4061e-75,1.60561,0.78134,5.75972
280.3,30.5755,280.725,30.5755,58.9579,0.0,58.9579,1.49859e-09,2.43843e-24,0.129149,51.6608,1.26809e-77,1.55866,0.763272,4.84602
280.2,38.6852,280.626,38.6852,55.6797,0.0,55.6797,4.12625e-10,7.81752e-25,0.12728,49.1553,2.68465e-80,1.51376,0.745823,4.13747
280.1,23.7842,280.525,23.7842,52.7333,0.0,52.7333,1.10262e-10,2.47963e-25,0.125452,46.8321,5.12976e-83,1.47079,0.728963,3.57596
280.0,22.8581,280.4255,22.8581,50.0629,0.0,50.0629,2.85963e-11,7.78155e-26,0.123664,44.674,8.84663e-86,1.42963,0.712667,3.12291
279.9,26.937,280.326,26.937,47.6265,0.0,47.6265,7.19795e-12,2.41604e-26,0.121913,42.6658,1.37699e-88,1.3902,0.696911,2.75175
279.8,41.0447,280.225,41.0447,45.3916,0.0,45.3916,1.75946e-12,7.42165e-27,0.120199,40.7936,1.93443e-91,1.35238,0.68167,2.44367
279.7,37.1686,280.126,37.1686,43.332,0.0,43.332,4.16891e-13,2.25557e-27,0.118521,39.0455,2.45271e-94,1.3161,0.666922,2.18502
279.6,26.2691,280.025,26.2691,41.4269,0.0,41.4269,9.67451e-14,6.78224e-28,0.116879,37.4105,2.8068e-97,1.28127,0.652647,1.96568
279.5,32.362,279.9255,32.362,39.6588,0.0,39.6588,2.17738e-14,2.01766e-28,0.11527,35.8788,2.899e-100,1.24782,0.638824,1.77802
279.4,37.4726,279.826,37.4726,38.0129,0.0,38.0129,5.21182e-15,5.93858e-29,0.113694,34.4419,2.70244e-103,1.21567,0.625435,1.61617
279.3,21.5662,279.725,21.5662,36.4768,0.0,36.4768,0.0,1.72933e-29,0.112151,33.0919,2.27371e-106,1.18475,0.612461,1.47558
279.2,20.633,279.626,20.633,35.04,0.0,35.04,0.0,4.98231e-30,0.110638,31.8218,1.72658e-109,1.155,0.599886,1.35266
279.1,32.7176,279.525,32.7176,33.693,0.0,33.693,0.0,1.42018e-30,0.109157,30.6252,1.18334e-112,1.12637,0.587694,1.24456
279.0,41.8357,279.4255,41.8357,32.4279,0.0,32.4279,0.0,4.00512e-31,0.107704,29.4966,7.31984e-116,1.0988,0.575869,1.14898
278.9,26.9446,279.326,26.9446,31.2376,0.0,31.2376,0.0,1.1175e-31,0.106281,28.4306,4.08663e-119,1.07223,0.564396,1.06405
278.8,8.0,279.225,8.0,30.1158,0.0,30.1158,0.0,3.08489e-32,0.104886,27.4228,2.05921e-122,1.04663,0.553263,0.988231
278.7,0.0,279.126,0.0,29.0569,0.0,29.0569,0.0,8.42538e-33,0.103518,26.4688,9.36501e-126,1.02193,0.542455,0.920267
278.6,6.0,279.025,6.0,28.0561,0.0,28.0561,0.0,2.27667e-33,0.102177,25.5647,3.84403e-129,0.9981,0.53196,0.859103
278.5,18.0,278.9255,18.0,27.1088,0.0,27.1088,0.0,6.08652e-34,0.100861,24.7072,1.42408e-132,0.975101,0.521766,0.80386
278.4,11.0,278.826,11.0,26.2111,0.0,26.2111,0.0,1.6099e-34,0.0995712,23.8929,4.76164e-136,0.952891,0.511861,0.753794
278.3,20.0,278.725,20.0,25.3593,0.0,25.3593,0.0,4.21295e-35,0.0983058,23.1191,1.43697e-139,0.931436,0.502236,0.708277
278.2,19.0,278.626,19.0,24.5503,0.0,24.5503,0.0,1.09077e-35,0.0970645,22.3829,3.91391e-143,0.910701,0.492879,0.666773
278.1,26.0,278.525,26.0,23.7811,0.0,23.7811,0.0,2.7941e-36,0.0958465,21.682,9.62157e-147,0.890655,0.483781,0.628821
278.0,33.0,278.4255,33.0,23.0489,0.0,23.0489,0.0,7.08122e-37,0.0946513,21.014,2.13477e-150,0.871266,0.474932,0.594027
277.9,10.0,278.326,10.0,22.3514,0.0,22.3514,0.0,1.77556e-37,0.0934784,20.377,4.27493e-154,0.852507,0.466323,0.562049
277.8,9.0,278.225,9.0,21.6862,0.0,21.6862,0.0,4.40473e-38,0.0923272,19.769,7.72639e-158,0.83435,0.457946,0.532591
277.7,16.0,278.126,16.0,21.0514,0.0,21.0514,0.0,1.0811e-38,0.0911972,19.1882,1.26036e-161,0.816769,0.449792,0.505395
277.6,9.0,278.025,9.0,20.445,0.0,20.445,0.0,2.62524e-39,0.0900878,18.6331,1.85561e-165,0.799741,0.441853,0.480233
277.5,4.0,277.9255,4.0,19.8653,0.0,19.8653,0.0,6.30714e-40,0.0889986,18.102,2.46575e-169,0.783243,0.434123,0.456908
277.4,8.0,277.826,8.0,19.3107,0.0,19.3107,0.0,1.49919e-40,0.0879291,17.5937,2.95721e-173,0.767252,0.426594,0.435245
277.3,5.0,277.725,5.0,18.7797,0.0,18.7797,0.0,3.52564e-41,0.0868787,17.1068,3.20101e-177,0.751748,0.419258,0.415089