File: XPS/LG4X-result/MX-UT-0.5-O1s.csv
#No of rows lightened (2D detector)1(if not using 2D detector, value is 1 and can be ignored!)
raw_x,raw_y,corrected x,data-bg,sum_components,bg,sum_fit,bg_shirley_,C-O,TiO2
540.0,223.0,540.6287,59.6997,6.89259e-06,163.3,163.3,163.3,6.89259e-06,2.51863e-180
539.9,141.0,540.5287,-22.3003,1.09933e-05,163.3,163.3,163.3,1.09933e-05,6.01574e-177
539.8,150.0,540.429,-13.3003,1.74359e-05,163.3,163.3,163.3,1.74359e-05,1.33653e-173
539.7,228.0,540.3287,64.6997,2.74995e-05,163.3,163.3,163.3,2.74995e-05,2.76207e-170
539.6,244.0,540.2287,80.6997,4.31295e-05,163.3,163.3,163.3,4.31295e-05,5.30952e-167
539.5,353.0,540.1287,189.7,6.72652e-05,163.3,163.3,163.3,6.72652e-05,9.49382e-164
539.4,313.0,540.0287,149.7,0.000104321,163.3,163.3,163.3,0.000104321,1.57904e-160
539.3,59.0,539.929,-104.3,0.000160888,163.3,163.3,163.3,0.000160888,2.44291e-157
539.2,210.0,539.8287,46.6997,0.000246741,163.3,163.301,163.3,0.000246741,3.51552e-154
539.1,312.0,539.7287,148.7,0.000376294,163.3,163.301,163.3,0.000376294,4.70582e-151
539.0,0.0,539.6287,-163.3,0.000570663,163.3,163.301,163.3,0.000570663,5.85932e-148
538.9,124.099,539.5287,-39.201,0.000860596,163.3,163.301,163.3,0.000860596,6.78615e-145
538.8,277.42,539.429,114.12,0.00129058,163.3,163.302,163.3,0.00129058,7.3108e-142
538.7,150.763,539.3287,-12.5373,0.0019246,163.3,163.302,163.3,0.0019246,7.32609e-139
538.6,142.998,539.2287,-20.3023,0.00285405,163.3,163.303,163.3,0.00285405,6.8288e-136
538.5,121.209,539.1287,-42.091,0.00420873,163.3,163.304,163.3,0.00420873,5.92081e-133
538.4,123.405,539.0287,-39.8953,0.00617173,163.3,163.306,163.3,0.00617173,4.77511e-130
538.3,94.5793,538.929,-68.721,0.00899974,163.3,163.309,163.3,0.00899974,3.58221e-127
538.2,293.89,538.8287,130.59,0.0130503,163.3,163.313,163.3,0.0130503,2.49967e-124
538.1,230.309,538.7287,67.0091,0.0188182,163.3,163.319,163.3,0.0188182,1.62249e-121
538.0,123.592,538.6287,-39.7078,0.0269838,163.3,163.327,163.3,0.0269838,9.79589e-119
537.9,140.804,538.5287,-22.4963,0.0384765,163.3,163.339,163.3,0.0384765,5.50139e-116
537.8,127.018,538.429,-36.2821,0.0545576,163.3,163.355,163.3,0.0545576,2.87386e-113
537.7,148.238,538.3287,-15.0619,0.0769275,163.3,163.377,163.3,0.0769275,1.39644e-110
537.6,235.545,538.2287,72.2451,0.107864,163.3,163.408,163.3,0.107864,6.31171e-108
537.5,260.943,538.1287,97.6423,0.150396,163.3,163.451,163.3,0.150396,2.6536e-105
537.4,157.277,538.0287,-6.02321,0.208529,163.3,163.509,163.3,0.208529,1.03774e-102
537.3,218.578,537.929,55.2774,0.287516,163.3,163.588,163.3,0.287516,3.77492e-100
537.2,205.917,537.8287,42.617,0.394208,163.3,163.694,163.3,0.394208,1.2773e-97
537.1,108.169,537.7287,-55.1318,0.537471,163.3,163.838,163.3,0.537471,4.02014e-95
537.0,36.2841,537.6287,-127.016,0.728707,163.3,164.029,163.3,0.728707,1.17694e-92
536.9,29.3366,537.5287,-133.964,0.982467,163.3,164.283,163.3,0.982467,3.20505e-90
536.8,105.444,537.429,-57.8559,1.3172,163.3,164.617,163.3,1.3172,8.11857e-88
536.7,186.678,537.3287,23.3778,1.7561,163.3,165.056,163.3,1.7561,1.91289e-85
536.6,282.053,537.2287,118.753,2.32818,163.3,165.628,163.3,2.32818,4.19241e-83
536.5,108.365,537.1287,-54.935,3.06938,163.3,166.37,163.3,3.06938,8.54681e-81
536.4,49.4916,537.0287,-113.809,4.02394,163.3,167.324,163.3,4.02394,1.62072e-78
536.3,29.5548,536.929,-133.745,5.2459,163.3,168.546,163.3,5.2459,2.85877e-76
536.2,64.6302,536.8287,-98.6701,6.80074,163.3,170.101,163.3,6.80074,4.69045e-74
536.1,134.79,536.7287,-28.5106,8.76716,163.3,172.067,163.3,8.76716,7.15839e-72
536.0,295.134,536.6287,131.833,11.239,163.3,174.539,163.3,11.239,1.0162e-69
535.9,205.534,536.5287,42.2338,14.3274,163.3,177.628,163.3,14.3274,1.34187e-67
535.8,131.804,536.429,-31.4964,18.1623,163.3,181.463,163.3,18.1623,1.64819e-65
535.7,251.11,536.3287,87.8099,22.8952,163.3,186.195,163.3,22.8952,1.88308e-63
535.6,215.483,536.2287,52.1832,28.7001,163.3,192,163.3,28.7001,2.00122e-61
535.5,170.792,536.1287,7.49215,35.7758,163.3,199.076,163.3,35.7758,1.97827e-59
535.4,119.024,536.0287,-44.276,44.3469,163.3,207.647,163.3,44.3469,1.81904e-57
535.3,182.265,535.929,18.965,54.6644,163.3,217.965,163.3,54.6644,1.55584e-55
535.2,379.715,535.8287,216.415,67.0059,163.3,230.306,163.3,67.0059,1.2378e-53
535.1,230.203,535.7287,66.9024,81.675,163.3,244.975,163.3,81.675,9.16017e-52
535.0,390.699,535.6287,227.399,98.9992,163.3,262.3,163.3,98.9992,6.30551e-50
534.9,229.195,535.5287,65.8949,119.328,163.3,282.628,163.3,119.328,4.03741e-48
534.8,169.514,535.429,6.21387,143.027,163.3,306.328,163.3,143.027,2.40464e-46
534.7,136.759,535.3287,-26.5411,170.476,163.3,333.777,163.3,170.476,1.33218e-44
534.6,244.064,535.2287,80.7635,202.058,163.3,365.358,163.3,202.058,6.865e-43
534.5,306.504,535.1287,143.204,238.153,163.3,401.453,163.3,238.153,3.29066e-41
534.4,222.928,535.0287,59.6274,279.127,163.3,442.427,163.3,279.127,1.46721e-39
534.3,385.414,534.929,222.114,325.324,163.3,488.624,163.3,325.324,6.08505e-38
534.2,450.083,534.8287,286.782,377.048,163.3,540.349,163.3,377.048,2.34748e-36
534.1,471.82,534.7287,308.52,434.555,163.3,597.856,163.3,434.555,8.42376e-35
534.0,634.705,534.6287,471.405,498.036,163.3,661.336,163.3,498.036,2.81173e-33
533.9,740.806,534.5287,577.505,567.602,163.3,730.902,163.3,567.602,8.72987e-32
533.8,745.995,534.429,582.695,643.271,163.3,806.571,163.3,643.271,2.5212e-30
533.7,900.312,534.3287,737.011,724.955,163.3,888.255,163.3,724.955,6.77284e-29
533.6,902.754,534.2287,739.454,812.448,163.3,975.749,163.3,812.448,1.69239e-27
533.5,945.232,534.1287,781.932,905.415,163.3,1068.72,163.3,905.415,3.93363e-26
533.4,1161.92,534.0287,998.618,1003.38,163.3,1166.68,163.3,1003.38,8.50459e-25
533.3,1215.82,533.929,1052.52,1105.74,163.3,1269.04,163.3,1105.74,1.71032e-23
533.2,1519.01,533.8287,1355.71,1211.73,163.3,1375.03,163.3,1211.73,3.19939e-22
533.1,1714.59,533.7287,1551.29,1320.47,163.3,1483.77,163.3,1320.47,5.56701e-21
533.0,1578.23,533.6287,1414.93,1430.92,163.3,1594.22,163.3,1430.92,9.01036e-20
532.9,1743.89,533.5287,1580.59,1541.95,163.3,1705.26,163.3,1541.95,1.35652e-18
532.8,2012.89,533.429,1849.59,1652.32,163.3,1815.62,163.3,1652.32,1.89967e-17
532.7,1923.04,533.3287,1759.74,1760.7,163.3,1924,163.3,1760.7,2.47453e-16
532.6,2211.35,533.2287,2048.05,1865.7,163.3,2029,163.3,1865.7,2.99829e-15
532.5,2311.96,533.1287,2148.66,1965.92,163.3,2129.22,163.3,1965.92,3.37924e-14
532.4,2181.56,533.0287,2018.26,2059.96,163.3,2223.26,163.3,2059.96,3.54266e-13
532.3,2320.16,532.929,2156.86,2146.43,163.3,2309.73,163.3,2146.43,3.45466e-12
532.2,2452.98,532.8287,2289.68,2224.04,163.3,2387.34,163.3,2224.04,3.13362e-11
532.1,2419.88,532.7287,2256.58,2291.59,163.3,2454.89,163.3,2291.59,2.64395e-10
532.0,2228.59,532.6287,2065.29,2348,163.3,2511.3,163.3,2348,2.07503e-09
531.9,2517.39,532.5287,2354.09,2392.36,163.3,2555.66,163.3,2392.36,1.51482e-08
531.8,2664.54,532.429,2501.24,2423.94,163.3,2587.24,163.3,2423.94,1.02864e-07
531.7,2470.64,532.3287,2307.34,2442.22,163.3,2605.52,163.3,2442.22,6.49724e-07
531.6,2676.76,532.2287,2513.46,2446.89,163.3,2610.19,163.3,2446.89,3.81734e-06
531.5,2617,532.1287,2453.7,2437.87,163.3,2601.17,163.3,2437.87,2.08621e-05
531.4,2496.09,532.0287,2332.79,2415.33,163.3,2578.63,163.3,2415.33,0.000106052
531.3,2631.19,531.929,2467.89,2379.62,163.3,2542.92,163.3,2379.62,0.000501473
531.2,2602.37,531.8287,2439.07,2331.35,163.3,2494.65,163.3,2331.34,0.00220567
531.1,2435.4,531.7287,2272.1,2271.3,163.3,2434.6,163.3,2271.29,0.00902396
531.0,2189.1,531.6287,2025.8,2200.46,163.3,2363.76,163.3,2200.42,0.0343416
530.9,2287.68,531.5287,2124.38,2119.98,163.3,2283.28,163.3,2119.86,0.121565
530.8,2032.14,531.429,1868.84,2031.24,163.3,2194.54,163.3,2030.84,0.400277
530.7,1881.27,531.3287,1717.97,1935.91,163.3,2099.21,163.3,1934.68,1.22597
530.6,1863.26,531.2287,1699.96,1836.28,163.3,1999.58,163.3,1832.79,3.49271
530.5,1860.24,531.1287,1696.94,1735.82,163.3,1899.12,163.3,1726.56,9.25573
530.4,1819.19,531.0287,1655.89,1640.22,163.3,1803.52,163.3,1617.41,22.8152
530.3,1721.02,530.929,1557.72,1559,163.3,1722.3,163.3,1506.69,52.3122
530.2,1722.77,530.8287,1559.47,1507.28,163.3,1670.58,163.3,1395.71,111.57
530.1,1885.66,530.7287,1722.36,1507.02,163.3,1670.32,163.3,1285.68,221.338
530.0,2113.86,530.6287,1950.56,1586.16,163.3,1749.46,163.3,1177.72,408.442
529.9,2177.29,530.5287,2013.99,1773.87,163.3,1937.17,163.3,1072.79,701.083
529.8,2364.92,530.429,2201.62,2091.12,163.3,2254.42,163.3,971.75,1119.37
529.7,2666.95,530.3287,2503.65,2537.74,163.3,2701.04,163.3,875.311,1662.43
529.6,3129.59,530.2287,2966.29,3080.6,163.3,3243.9,163.3,784.039,2296.56
529.5,3478.87,530.1287,3315.57,3649.42,163.3,3812.72,163.3,698.361,2951.06
529.4,4117.95,530.0287,3954.65,4145.88,163.3,4309.18,163.3,618.572,3527.31
529.3,4758.05,529.929,4594.75,4466.53,163.3,4629.83,163.3,544.837,3921.69
529.2,4830.72,529.8287,4667.42,4532.94,163.3,4696.24,163.3,477.212,4055.72
529.1,4649.3,529.7287,4486,4317.12,163.3,4480.42,163.3,415.645,3901.48
529.0,4273.44,529.6287,4110.14,3851.04,163.3,4014.34,163.3,359.999,3491.04
528.9,3192.41,529.5287,3029.11,3215.72,163.3,3379.02,163.3,310.061,2905.66
528.8,2508.97,529.429,2345.67,2515.14,163.3,2678.44,163.3,265.559,2249.58
528.7,1846.46,529.3287,1683.16,1846.2,163.3,2009.5,163.3,226.173,1620.03
528.6,1458.1,529.2287,1294.8,1276.75,163.3,1440.05,163.3,191.553,1085.2
528.5,1046.1,529.1287,882.803,837.501,163.3,1000.8,163.3,161.326,676.175
528.4,647.458,529.0287,484.158,527.01,163.3,690.31,163.3,135.11,391.9
528.3,579.44,528.929,416.14,323.801,163.3,487.101,163.3,112.522,211.279
528.2,479.287,528.8287,315.986,199.137,163.3,362.437,163.3,93.1865,105.951
528.1,197.828,528.7287,34.5281,126.164,163.3,289.464,163.3,76.7427,49.4215
528.0,245.183,528.6287,81.8825,84.291,163.3,247.591,163.3,62.8476,21.4434
527.9,256.584,528.5287,93.2838,59.8352,163.3,223.135,163.3,51.1808,8.65436
527.8,293.024,528.429,129.723,44.696,163.3,207.996,163.3,41.447,3.24894
527.7,220.434,528.3287,57.1342,34.5115,163.3,197.812,163.3,33.3769,1.13453
527.6,171.748,528.2287,8.44791,27.0965,163.3,190.397,163.3,26.728,0.368512
527.5,206.05,528.1287,42.7501,21.3954,163.3,184.696,163.3,21.2841,0.111341
527.4,258.422,528.0287,95.1217,16.8856,163.3,180.186,163.3,16.8543,0.0312912
527.3,370.925,527.929,207.625,13.28,163.3,176.58,163.3,13.2719,0.00818004
527.2,204.385,527.8287,41.0853,10.3945,163.3,173.695,163.3,10.3925,0.00198909
527.1,79.6127,527.7287,-83.6875,8.09287,163.3,171.393,163.3,8.09242,0.000449901
527.0,161.806,527.6287,-1.49443,6.26627,163.3,169.566,163.3,6.26617,9.46554e-05
526.9,81.0,527.5287,-82.3002,4.82498,163.3,168.125,163.3,4.82496,1.85242e-05
526.8,0.0,527.429,-163.3,3.69447,163.3,166.995,163.3,3.69447,3.37208e-06
526.7,64.0,527.3287,-99.3002,2.81305,163.3,166.113,163.3,2.81305,5.70981e-07
526.6,190.0,527.2287,26.6998,2.12996,163.3,165.43,163.3,2.12996,8.99312e-08
526.5,268.0,527.1287,104.7,1.60373,163.3,164.904,163.3,1.60373,1.31754e-08
526.4,205.0,527.0287,41.6998,1.20077,163.3,164.501,163.3,1.20077,1.79549e-09
526.3,172.0,526.929,8.69979,0.894034,163.3,164.194,163.3,0.894034,2.27598e-10
526.2,29.0,526.8287,-134.3,0.661936,163.3,163.962,163.3,0.661936,2.6836e-11
526.1,238.0,526.7287,74.6998,0.487355,163.3,163.788,163.3,0.487355,2.94328e-12
526.0,98.0,526.6287,-65.3002,0.356814,163.3,163.657,163.3,0.356814,3.0027e-13
525.9,148.0,526.5287,-15.3002,0.25978,163.3,163.56,163.3,0.25978,2.84942e-14
525.8,181.0,526.429,17.6998,0.188078,163.3,163.488,163.3,0.188078,2.51517e-15
525.7,20.0,526.3287,-143.3,0.135405,163.3,163.436,163.3,0.135405,2.0651e-16
525.6,169.0,526.2287,5.69979,0.0969397,163.3,163.397,163.3,0.0969397,1.57718e-17
525.5,251.0,526.1287,87.6998,0.0690136,163.3,163.369,163.3,0.0690136,1.12044e-18
525.4,336.0,526.0287,172.7,0.0488579,163.3,163.349,163.3,0.0488579,7.40387e-20
525.3,355.0,525.929,191.7,0.0343956,163.3,163.335,163.3,0.0343956,4.55087e-21
525.2,319.0,525.8287,155.7,0.0240789,163.3,163.324,163.3,0.0240789,2.60193e-22
525.1,129.0,525.7287,-34.3002,0.0167625,163.3,163.317,163.3,0.0167625,1.38376e-23
525.0,193.0,525.6287,29.6998,0.011604,163.3,163.312,163.3,0.011604,6.8453e-25