File: XPS/LG4X-result/MX-UT-0.5-C1s.csv
#No of rows lightened (2D detector)1(if not using 2D detector, value is 1 and can be ignored!)
raw_x,raw_y,corrected x,data-bg,sum_components,bg,sum_fit,bg_shirley_,C=C,pi-pi*,pi-pi*2,C-C,C-O,C=O,O-C=O,TiC
294.7,12.0,295.354,11.9441,33.114,0.0559388,33.1699,0.0559388,16.6221,0.140577,4.02635,10.5457,4.5902e-05,0.942965,0.828507,0.00781989
294.6,0.0,295.254,-0.0559388,35.2864,0.0559388,35.3423,0.0559388,16.9322,0.201746,5.55592,10.7608,4.69833e-05,0.969774,0.857912,0.00793847
294.5,14.0216,295.1537,13.9656,38.5735,0.0559388,38.6294,0.0559388,17.2512,0.28705,8.15779,10.9827,4.81032e-05,0.997738,0.888917,0.00805977
294.4,39.1032,295.054,39.0473,44.0074,0.0559387,44.0633,0.0559387,17.5792,0.404921,12.855,11.2116,4.92638e-05,1.02692,0.921641,0.00818387
294.3,54.2467,294.954,54.1908,53.1824,0.0559385,53.2384,0.0559385,17.9166,0.566295,21.2298,11.4477,5.04669e-05,1.05741,0.956214,0.00831086
294.2,68.4353,294.854,68.3794,67.0451,0.0559382,67.101,0.0559382,18.2639,0.78519,34.214,11.6914,5.17148e-05,1.08926,0.99278,0.00844083
294.1,112.714,294.754,112.658,82.8873,0.0559379,82.9432,0.0559379,18.6214,1.07936,49.0808,11.9431,5.30097e-05,1.12256,1.03149,0.00857388
294.0,62.9839,294.6537,62.928,93.2463,0.0559374,93.3023,0.0559374,18.9894,1.47102,58.3441,12.2031,5.4354e-05,1.15741,1.07253,0.00871009
293.9,96.2287,294.554,96.1728,91.7768,0.0559371,91.8327,0.0559371,19.3685,1.98761,55.6301,12.4717,5.57501e-05,1.19391,1.11608,0.00884958
293.8,92.5189,294.454,92.463,80.4963,0.0559366,80.5523,0.0559366,19.7591,2.66259,42.9219,12.7493,5.72009e-05,1.23214,1.16235,0.00899245
293.7,51.7407,294.354,51.6847,67.3986,0.0559362,67.4545,0.0559362,20.1616,3.53619,28.1714,13.0364,5.87092e-05,1.27223,1.21157,0.00913881
293.6,60.9139,294.254,60.8579,58.262,0.0559359,58.3179,0.0559359,20.5765,4.65616,17.1083,13.3334,6.02782e-05,1.3143,1.26401,0.00928877
293.5,51.086,294.1537,51.0301,53.9157,0.0559356,53.9717,0.0559356,21.0043,6.07828,10.5044,13.6407,6.1911e-05,1.35849,1.31995,0.00944245
293.4,52.2449,294.054,52.189,52.9332,0.0559354,52.9891,0.0559354,21.4457,7.86671,6.86756,13.9589,6.36113e-05,1.40492,1.37972,0.00959998
293.3,74.4397,293.954,74.3837,54.0024,0.0559351,54.0584,0.0559351,21.9011,10.094,4.81154,14.2885,6.53829e-05,1.45376,1.44366,0.00976149
293.2,90.6935,293.854,90.6376,56.4329,0.0559348,56.4888,0.0559348,22.3711,12.841,3.56341,14.63,6.72297e-05,1.50518,1.51219,0.0099271
293.1,72.9451,293.754,72.8892,59.9414,0.0559343,59.9973,0.0559343,22.8565,16.1953,2.75025,14.984,6.91561e-05,1.55936,1.58575,0.010097
293.0,74.1713,293.6537,74.1153,64.4413,0.055934,64.4972,0.055934,23.3578,20.2508,2.18976,15.3512,7.11668e-05,1.61649,1.66486,0.0102712
292.9,93.4289,293.554,93.373,69.9364,0.0559336,69.9923,0.0559336,23.8758,25.1047,1.78629,15.7322,7.32668e-05,1.67681,1.75009,0.0104501
292.8,52.6535,293.454,52.5976,76.4732,0.0559332,76.5291,0.0559332,24.4113,30.8551,1.48577,16.1276,7.54614e-05,1.74053,1.8421,0.0106336
292.7,87.8695,293.354,87.8136,84.1171,0.0559329,84.173,0.0559329,24.9649,37.5976,1.25569,16.5384,7.77565e-05,1.80794,1.94162,0.010822
292.6,108.171,293.254,108.115,92.9388,0.0559325,92.9948,0.0559325,25.5376,45.4206,1.07552,16.9652,8.01583e-05,1.8793,2.04952,0.0110155
292.5,100.492,293.1537,100.436,103.005,0.055932,103.061,0.055932,26.1303,54.4008,0.931727,17.409,8.26736e-05,1.95495,2.16676,0.0112142
292.4,125.84,293.054,125.784,114.368,0.0559315,114.424,0.0559315,26.7438,64.5978,0.815087,17.8706,8.53096e-05,2.03521,2.29446,0.0114183
292.3,153.269,292.954,153.213,127.064,0.0559309,127.12,0.0559309,27.3792,76.0484,0.719144,18.351,8.80742e-05,2.12047,2.43393,0.0116281
292.2,185.79,292.854,185.734,141.099,0.0559301,141.155,0.0559301,28.0375,88.7612,0.639258,18.8513,9.0976e-05,2.21116,2.58667,0.0118437
292.1,132.279,292.754,132.223,156.45,0.0559292,156.505,0.0559292,28.7198,102.711,0.572024,19.3727,9.40242e-05,2.30774,2.75444,0.0120654
292.0,195.783,292.6537,195.727,173.054,0.0559286,173.11,0.0559286,29.4274,117.833,0.514897,19.9163,9.72289e-05,2.41072,2.93929,0.0122933
291.9,214.414,292.554,214.358,190.811,0.0559277,190.867,0.0559277,30.1614,134.023,0.465943,20.4834,0.000100601,2.52068,3.14367,0.0125278
291.8,188.033,292.454,187.977,209.575,0.0559266,209.631,0.0559266,30.9232,151.131,0.423669,21.0754,0.000104153,2.63825,3.37044,0.012769
291.7,193.619,292.354,193.563,229.156,0.0559257,229.212,0.0559257,31.7143,168.961,0.386912,21.6938,0.000107897,2.76414,3.62304,0.0130173
291.6,235.279,292.254,235.223,249.324,0.0559248,249.38,0.0559248,32.5361,187.275,0.354748,22.3403,0.000111847,2.89916,3.90559,0.0132729
291.5,207.96,292.1537,207.904,269.808,0.0559237,269.864,0.0559237,33.3903,205.794,0.326442,23.0166,0.00011602,3.04418,4.22305,0.0135361
291.4,273.701,292.054,273.645,290.305,0.0559227,290.361,0.0559227,34.2786,224.205,0.3014,23.7246,0.000120432,3.20022,4.58143,0.0138072
291.3,314.605,291.954,314.549,310.487,0.0559214,310.543,0.0559214,35.2028,242.168,0.279138,24.4663,0.000125102,3.36839,4.98806,0.0140865
291.2,356.637,291.854,356.581,330.013,0.0559198,330.069,0.0559198,36.1649,259.329,0.259257,25.2439,0.000130051,3.54998,5.45191,0.0143744
291.1,362.743,291.754,362.687,348.537,0.0559181,348.593,0.0559181,37.167,275.323,0.241431,26.0599,0.000135301,3.74641,5.98396,0.0146712
291.0,359.854,291.6537,359.798,365.724,0.0559164,365.78,0.0559164,38.2114,289.798,0.225384,26.9168,0.000140878,3.95934,6.59769,0.0149774
290.9,429.067,291.554,429.011,381.263,0.0559146,381.319,0.0559146,39.3003,302.419,0.210888,27.8175,0.000146809,4.19061,7.30957,0.0152932
290.8,344.256,291.454,344.2,394.88,0.0559126,394.936,0.0559126,40.4366,312.883,0.197748,28.7651,0.000153125,4.44235,8.13964,0.0156191
290.7,396.394,291.354,396.338,406.35,0.0559109,406.406,0.0559109,41.6228,320.933,0.1858,29.763,0.000159862,4.71701,9.11195,0.0159556
290.6,414.641,291.254,414.585,415.509,0.055909,415.565,0.055909,42.862,326.368,0.174905,30.8148,0.000167056,5.01739,10.2549,0.016303
290.5,419.924,291.1537,419.868,422.261,0.055907,422.317,0.055907,44.1574,329.049,0.164941,31.9246,0.000174751,5.34671,11.6013,0.0166619
290.4,445.254,291.054,445.198,426.586,0.055905,426.642,0.055905,45.5124,328.907,0.155806,33.0968,0.000182996,5.70873,13.1874,0.0170329
290.3,411.571,290.954,411.516,428.539,0.0559028,428.595,0.0559028,46.9308,325.947,0.14741,34.3363,0.000191843,6.10778,15.0521,0.0174163
290.2,443.887,290.854,443.831,428.248,0.0559009,428.304,0.0559009,48.4165,320.243,0.139676,35.6484,0.000201354,6.54894,17.2334,0.0178129
290.1,465.284,290.754,465.228,425.908,0.0558987,425.964,0.0558987,49.9739,311.941,0.132535,37.0391,0.000211598,7.03813,19.765,0.0182231
290.0,446.686,290.6537,446.63,421.769,0.0558965,421.825,0.0558965,51.6078,301.249,0.125928,38.5149,0.000222652,7.58235,22.6703,0.0186478
289.9,398.986,290.554,398.931,416.12,0.0558943,416.176,0.0558943,53.3231,288.429,0.119804,40.0829,0.000234607,8.18979,25.9558,0.0190874
289.8,417.241,290.454,417.185,409.271,0.0558924,409.327,0.0558924,55.1253,273.787,0.114116,41.7513,0.000247562,8.87022,29.6036,0.0195428
289.7,401.5,290.354,401.444,401.537,0.0558904,401.593,0.0558904,57.0205,257.659,0.108824,43.5288,0.000261635,9.63521,33.564,0.0200147
289.6,402.736,290.254,402.681,393.217,0.0558885,393.272,0.0558885,59.0152,240.402,0.103892,45.4254,0.000276961,10.4986,37.7504,0.0205039
289.5,370.926,290.1537,370.87,384.581,0.0558865,384.637,0.0558865,61.1165,222.378,0.0992884,47.452,0.000293693,11.4769,42.0374,0.0210113
289.4,333.008,290.054,332.952,375.864,0.0558848,375.92,0.0558848,63.332,203.941,0.0949841,49.621,0.000312015,12.59,46.263,0.0215377
289.3,343.047,289.954,342.991,367.258,0.0558832,367.314,0.0558832,65.6702,185.429,0.0909538,51.946,0.000332135,13.8619,50.2372,0.0220842
289.2,335.09,289.854,335.034,358.922,0.0558815,358.978,0.0558815,68.1404,167.152,0.0871749,54.4424,0.000354304,15.3215,53.7561,0.0226518
289.1,358.156,289.754,358.1,350.994,0.0558799,351.05,0.0558799,70.7527,149.384,0.0836269,57.1271,0.000378814,17.0035,56.6195,0.0232416
289.0,357.255,289.6537,357.2,343.605,0.0558782,343.661,0.0558782,73.5181,132.36,0.0802912,60.0194,0.000406016,18.9498,58.6524,0.0238548
288.9,393.41,289.554,393.354,336.897,0.0558764,336.953,0.0558764,76.449,116.271,0.0771513,63.1406,0.000436328,21.2106,59.7238,0.0244925
288.8,354.559,289.454,354.504,331.042,0.0558745,331.098,0.0558745,79.5587,101.262,0.0741921,66.5145,0.000470257,23.8451,59.7625,0.0251562
288.7,289.55,289.354,289.494,326.249,0.0558728,326.305,0.0558728,82.8622,87.4335,0.0714,70.1678,0.000508424,26.9219,58.7659,0.0258473
288.6,306.466,289.254,306.41,322.767,0.0558714,322.822,0.0558714,86.3758,74.8465,0.0687627,74.13,0.000551601,30.518,56.8003,0.0265673
288.5,328.442,289.1537,328.386,320.875,0.05587,320.931,0.05587,90.1178,63.5221,0.0662689,78.4341,0.00060079,34.7142,53.9928,0.0273178
288.4,328.452,289.054,328.396,320.868,0.0558684,320.923,0.0558684,94.1084,53.4488,0.0639084,83.1166,0.000657458,39.5853,50.5158,0.0281006
288.3,331.466,288.954,331.411,323.015,0.0558668,323.071,0.0558668,98.3702,44.5873,0.0616719,88.2175,0.00072437,45.1808,46.5682,0.0289176
288.2,299.436,288.854,299.381,327.521,0.0558652,327.577,0.0558652,102.928,36.8761,0.0595508,93.781,0.000808743,51.4912,42.3544,0.0297707
288.1,331.406,288.754,331.35,334.454,0.0558638,334.51,0.0558638,107.811,30.237,0.0575373,99.8551,0.000933825,58.3964,38.066,0.0306623
288.0,330.424,288.6537,330.368,343.678,0.0558622,343.734,0.0558622,113.049,24.5806,0.0556243,106.492,0.00117871,65.6008,33.8673,0.0315945
287.9,363.49,288.554,363.435,354.789,0.0558606,354.845,0.0558606,118.679,19.811,0.0538051,113.748,0.00180537,72.5766,29.8868,0.03257
287.8,363.608,288.454,363.552,367.12,0.0558588,367.176,0.0558588,124.741,15.8299,0.0520738,121.682,0.00363249,78.565,26.2138,0.0335914
287.7,379.751,288.354,379.695,379.868,0.0558571,379.923,0.0558571,131.279,12.5404,0.0504248,130.357,0.009045,82.6966,22.9005,0.0346616
287.6,407.962,288.254,407.906,392.353,0.0558553,392.409,0.0558553,138.345,9.84932,0.0488528,139.839,0.0244862,84.2439,19.967,0.0357839
287.5,443.271,288.1537,443.215,404.327,0.0558533,404.382,0.0558533,145.998,7.66937,0.0473533,150.194,0.0660453,82.9064,17.4084,0.0369617
287.4,379.536,288.054,379.48,416.116,0.0558512,416.172,0.0558512,154.304,5.92071,0.0459218,161.49,0.170744,78.9449,15.2022,0.0381987
287.3,411.752,287.954,411.696,428.543,0.0558493,428.598,0.0558493,163.34,4.53155,0.0445542,173.791,0.4168,73.064,13.3154,0.039499
287.2,432.049,287.854,431.994,442.675,0.0558474,442.731,0.0558474,173.194,3.43859,0.0432469,187.161,0.955259,66.1329,11.7099,0.0408669
287.1,437.386,287.754,437.33,459.616,0.0558453,459.672,0.0558453,183.968,2.58687,0.0419963,201.655,2.05095,58.9243,10.3471,0.0423072
287.0,507.839,287.6537,507.783,480.412,0.0558432,480.468,0.0558432,195.78,1.92943,0.0407992,217.322,4.12126,51.9842,9.1903,0.0438251
286.9,489.372,287.554,489.316,506.058,0.0558407,506.114,0.0558407,208.768,1.42673,0.0396525,234.2,7.7477,45.624,8.2064,0.0454264
286.8,538.953,287.454,538.897,537.503,0.0558384,537.558,0.0558384,223.094,1.04596,0.0385535,252.312,13.6239,39.9742,7.36668,0.0471172
286.7,574.665,287.354,574.609,575.563,0.0558358,575.618,0.0558358,238.948,0.760238,0.0374996,271.663,22.4068,35.0507,6.64678,0.0489043
286.6,614.493,287.254,614.438,620.729,0.055833,620.784,0.055833,256.556,0.547827,0.0364884,292.239,34.4655,30.807,6.02639,0.0507954
286.5,630.407,287.1537,630.351,672.902,0.05583,672.958,0.05583,276.186,0.391379,0.0355175,313.999,49.5801,27.1693,5.48879,0.0527984
286.4,743.519,287.054,743.464,731.182,0.055827,731.238,0.055827,298.16,0.277211,0.0345849,336.877,66.7022,24.0567,5.0203,0.0549226
286.3,838.952,286.954,838.896,793.853,0.0558234,793.909,0.0558234,322.867,0.194664,0.0336885,360.776,83.923,21.392,4.60977,0.0571779
286.2,845.542,286.854,845.486,858.677,0.0558194,858.733,0.0558194,350.78,0.135525,0.0328265,385.568,98.7477,19.1057,4.24809,0.0595753
286.1,944.294,286.754,944.238,923.485,0.0558153,923.54,0.0558153,382.478,0.0935433,0.0319972,411.092,108.662,17.1379,3.92782,0.062127
286.0,978.249,286.6537,978.193,986.89,0.0558108,986.946,0.0558108,418.675,0.0640128,0.031199,437.152,111.823,15.4379,3.64287,0.0648467
285.9,1020.32,286.554,1020.27,1048.89,0.0558061,1048.95,0.0558061,460.26,0.0434291,0.0304302,463.521,107.619,13.9631,3.3882,0.0677494
285.8,1116.61,286.454,1116.55,1111.12,0.0558012,1111.17,0.0558012,508.349,0.0292116,0.0296896,489.941,96.8606,12.6784,3.15964,0.0708521
285.7,1133.07,286.354,1133.01,1176.64,0.0557958,1176.7,0.0557958,564.353,0.01948,0.0289756,516.127,81.5289,11.5544,2.95371,0.0741734
285.6,1326.85,286.254,1326.79,1249.48,0.0557903,1249.53,0.0557903,630.076,0.012879,0.0282871,541.771,64.1773,10.5668,2.7675,0.0777346
285.5,1274.85,286.1537,1274.79,1334.04,0.0557839,1334.1,0.0557839,707.84,0.00844183,0.0276229,566.546,47.2453,9.69555,2.59855,0.0815593
285.4,1470.07,286.054,1470.01,1434.81,0.0557778,1434.86,0.0557778,800.676,0.00548594,0.0269818,590.118,32.5273,8.92378,2.44476,0.0856744
285.3,1566.74,285.954,1566.68,1556.33,0.0557707,1556.39,0.0557707,912.576,0.00353447,0.0263627,612.15,20.9438,8.23752,2.30436,0.09011
285.2,1722.79,285.854,1722.74,1703.74,0.0557632,1703.79,0.0557632,1048.89,0.00225766,0.0257647,632.31,12.6123,7.62502,2.17583,0.0949005
285.1,1879.33,285.754,1879.27,1883.56,0.0557549,1883.61,0.0557549,1216.91,0.00142973,0.0251869,650.283,7.10367,7.07643,2.05786,0.100085
285.0,2078.41,285.6537,2078.36,2104.99,0.0557458,2105.04,0.0557458,1426.8,0.00089765,0.0246282,665.776,3.74255,6.58341,1.94931,0.105708
284.9,2317.17,285.554,2317.12,2381.69,0.0557358,2381.75,0.0557358,1693.19,0.000558755,0.024088,678.532,1.84475,6.13891,1.8492,0.11182
284.8,2773,285.454,2772.94,2734.65,0.0557247,2734.7,0.0557247,2037.83,0.000344822,0.0235653,688.331,0.851113,5.73693,1.75666,0.118481
284.7,3205.19,285.354,3205.13,3197.14,0.0557113,3197.2,0.0557113,2494.58,0.000210974,0.0230595,695.004,0.367933,5.37233,1.67095,0.125759
284.6,3702.81,285.254,3702.75,3824.14,0.0556959,3824.2,0.0556959,3118.77,0.000127975,0.0225698,698.432,0.149413,5.04072,1.59141,0.133731
284.5,4585.55,285.1537,4585.5,4710.25,0.0556781,4710.31,0.0556781,4005.22,7.69623e-05,0.0220955,698.554,0.0573699,4.73832,1.51745,0.142491
284.4,5971.78,285.054,5971.73,6020.88,0.055656,6020.93,0.055656,5319.4,4.58873e-05,0.021636,695.369,0.02119,4.46186,1.44857,0.152145
284.3,8182.54,284.954,8182.49,8023.39,0.0556272,8023.44,0.0556272,7328.67,2.71248e-05,0.0211907,688.934,0.00786841,4.20851,1.3843,0.162822
284.2,11176.3,284.854,11176.2,11023.8,0.0555878,11023.9,0.0555878,10339,1.58965e-05,0.020759,679.36,0.00323224,3.9758,1.32424,0.174671
284.1,15005.6,284.754,15005.5,14990.4,0.055534,14990.5,0.055534,14318.4,9.23624e-06,0.0203404,666.817,0.00167059,3.76158,1.26803,0.187873
284.0,18616.2,284.6537,18616.2,18874.9,0.0554618,18874.9,0.0554618,18218.4,5.32047e-06,0.0199343,651.517,0.00112952,3.56399,1.21534,0.202642
283.9,20736.7,284.554,20736.7,20589.8,0.0553722,20589.9,0.0553722,19951.3,3.03853e-06,0.0195403,633.719,0.000911371,3.38136,1.16589,0.219239
283.8,18627.3,284.454,18627.2,18657.5,0.0552723,18657.6,0.0552723,18039.2,1.72044e-06,0.0191578,613.71,0.000794948,3.21223,1.11941,0.237983
283.7,14071.5,284.354,14071.5,13951.6,0.0551826,13951.7,0.0551826,13355.4,9.65768e-07,0.0187864,591.806,0.000713916,3.05534,1.07566,0.259264
283.6,8822.73,284.254,8822.67,8884.15,0.0551149,8884.2,0.0551149,8311.56,5.37486e-07,0.0184258,568.336,0.000648756,2.90953,1.03445,0.283567
283.5,4953.9,284.1537,4953.85,5142.86,0.0550724,5142.92,0.0550724,4595.12,2.96566e-07,0.0180754,543.638,0.000593288,2.77381,0.995569,0.311501
283.4,2931.03,284.054,2930.97,2934.85,0.0550485,2934.9,0.0550485,2412.83,1.62232e-07,0.0177349,518.047,0.00054504,2.64727,0.95885,0.343839
283.3,1867.4,283.954,1867.35,1762.77,0.0550344,1762.82,0.0550344,1267.02,8.79855e-08,0.017404,491.891,0.00050264,2.52911,0.924134,0.381573
283.2,1254.2,283.854,1254.15,1149.04,0.0550254,1149.1,0.0550254,679.81,4.73092e-08,0.0170822,465.478,0.000465126,2.41861,0.891278,0.425999
283.1,925.554,283.754,925.499,815.162,0.0550194,815.217,0.0550194,372.395,2.52197e-08,0.0167693,439.096,0.000431753,2.31513,0.86015,0.478837
283.0,733.104,283.6537,733.049,623.142,0.055015,623.197,0.055015,206.529,1.33289e-08,0.0164649,413.004,0.000401918,2.2181,0.830631,0.542413
282.9,571.109,283.554,571.054,505.991,0.0550114,506.046,0.0550114,114.991,6.98408e-09,0.0161687,387.434,0.000375128,2.12699,0.802611,0.619944
282.8,461.697,283.454,461.642,429.983,0.0550087,430.038,0.0550087,63.8514,3.62814e-09,0.0158805,362.582,0.000350975,2.04134,0.775991,0.716008
282.7,357.957,283.354,357.902,377.359,0.0550065,377.414,0.0550065,35.1825,1.86861e-09,0.0155999,338.612,0.000329118,1.96072,0.750677,0.837348
282.6,301.971,283.254,301.916,338.44,0.0550047,338.495,0.0550047,19.1639,9.54142e-10,0.0153266,315.654,0.000309271,1.88475,0.726587,0.99443
282.5,264.843,283.1537,264.788,307.835,0.0550033,307.89,0.0550033,10.2888,4.83023e-10,0.0150605,293.809,0.000291191,1.81308,0.703642,1.2053
282.4,257.646,283.054,257.591,282.528,0.055002,282.583,0.055002,5.43204,2.42428e-10,0.0148012,273.144,0.000274671,1.74539,0.68177,1.50912
282.3,229.395,282.954,229.34,260.898,0.0550008,260.953,0.0550008,2.81492,1.2063e-10,0.0145486,253.702,0.000259535,1.6814,0.660905,2.02454
282.2,219.084,282.854,219.029,242.396,0.0549997,242.451,0.0549997,1.42959,5.95103e-11,0.0143024,235.498,0.00024563,1.62084,0.640987,3.19168
282.1,225.768,282.754,225.713,228.039,0.0549986,228.094,0.0549986,0.710638,2.91063e-11,0.0140624,218.529,0.000232826,1.56348,0.621958,6.5991
282.0,240.485,282.6537,240.43,222.345,0.0549975,222.4,0.0549975,0.345398,1.41137e-11,0.0138284,202.773,0.000221007,1.50909,0.603766,17.0994
281.9,265.262,282.554,265.207,236.728,0.0549964,236.783,0.0549964,0.163997,6.7851e-12,0.0136002,188.194,0.000210075,1.45748,0.586364,46.3126
281.8,310.147,282.454,310.092,291.224,0.0549951,291.279,0.0549951,0.076008,3.23393e-12,0.0133775,174.743,0.000199941,1.40845,0.569705,114.413
281.7,421.271,282.354,421.216,406.748,0.0549936,406.803,0.0549936,0.0343641,1.52815e-12,0.0131603,162.365,0.00019053,1.36184,0.553747,242.42
281.6,563.786,282.254,563.731,582.839,0.0549916,582.894,0.0549916,0.0151469,7.15914e-13,0.0129484,150.997,0.000181773,1.3175,0.538453,429.958
281.5,773.842,282.1537,773.787,774.531,0.0549888,774.586,0.0549888,0.00650567,3.32518e-13,0.0127415,140.575,0.000173611,1.27528,0.523785,632.138
281.4,878.382,282.054,878.327,900.085,0.0549851,900.14,0.0549851,0.00272158,1.53119e-13,0.0125396,131.031,0.00016599,1.23504,0.50971,767.294
281.3,900.116,281.954,900.062,891.743,0.0549809,891.798,0.0549809,0.00110851,6.99045e-14,0.0123424,122.298,0.000158864,1.19667,0.496196,767.739
281.2,780.701,281.854,780.646,749.204,0.0549766,749.259,0.0549766,0.000439437,3.16403e-14,0.0121498,114.311,0.000152191,1.16006,0.483213,633.237
281.1,529.715,281.754,529.66,539.812,0.0549728,539.867,0.0549728,0.000169494,1.41983e-14,0.0119617,107.007,0.000145932,1.12509,0.470735,431.197
281.0,334.043,281.6537,333.988,345.276,0.0549702,345.331,0.0549702,6.35909e-05,6.3167e-15,0.011778,100.326,0.000140053,1.09167,0.458734,243.387
280.9,188.847,281.554,188.792,210.718,0.0549686,210.773,0.0549686,2.3201e-05,2.78616e-15,0.0115984,94.2124,0.000134525,1.05971,0.447188,114.987
280.8,141.355,281.454,141.3,136.671,0.0549677,136.726,0.0549677,8.22982e-06,1.21837e-15,0.0114229,88.6128,0.00012932,1.02913,0.436073,46.5816
280.7,81.6974,281.354,81.6424,102.119,0.0549671,102.174,0.0549671,2.83764e-06,5.28221e-16,0.0112514,83.4792,0.000124413,0.999855,0.425369,17.2028
280.6,79.9459,281.254,79.891,86.7987,0.0549667,86.8537,0.0549667,9.50878e-07,2.27044e-16,0.0110837,78.7672,0.000119781,0.971803,0.415054,6.63347
280.5,37.1259,281.1537,37.0709,79.0002,0.0549663,79.0552,0.0549663,3.09614e-07,9.67532e-17,0.0109197,74.4364,0.000115405,0.94491,0.405111,3.20281
280.4,44.251,281.054,44.196,73.8043,0.0549661,73.8593,0.0549661,9.79431e-08,4.08772e-17,0.0107593,70.45,0.000111265,0.919115,0.395521,2.02885
280.3,49.395,280.954,49.34,69.5776,0.0549659,69.6326,0.0549659,3.00971e-08,1.71221e-17,0.0106025,66.7749,0.000107345,0.894358,0.386269,1.51138
280.2,69.5779,280.854,69.5229,65.8465,0.0549656,65.9015,0.0549656,8.98285e-09,7.11035e-18,0.010449,63.3813,0.00010363,0.870585,0.377338,1.20679
280.1,28.729,280.754,28.674,62.4646,0.0549653,62.5196,0.0549653,2.6037e-09,2.92743e-18,0.0102989,60.2422,0.000100105,0.847743,0.368714,0.995511
280.0,27.8159,280.6537,27.761,59.3684,0.0549652,59.4233,0.0549652,7.32833e-10,1.19493e-18,0.010152,57.3338,9.67574e-05,0.825787,0.360382,0.83817
279.9,31.9078,280.554,31.8528,56.5181,0.054965,56.5731,0.054965,2.00266e-10,4.83567e-19,0.0100081,54.6344,9.35759e-05,0.80467,0.352331,0.716653
279.8,51.0353,280.454,50.9803,53.884,0.0549649,53.939,0.0549649,5.31357e-11,1.94013e-19,0.00986738,52.1247,9.05493e-05,0.78435,0.344546,0.62046
279.7,55.1986,280.354,55.1436,51.442,0.0549646,51.497,0.0549646,1.36875e-11,7.71733e-20,0.00972955,49.7876,8.76679e-05,0.764787,0.337018,0.542833
279.6,30.3301,280.254,30.2751,49.1721,0.0549644,49.227,0.0549644,3.42193e-12,3.04342e-20,0.00959459,47.6075,8.49223e-05,0.745946,0.329733,0.479184
279.5,18.405,280.1537,18.35,47.0571,0.0549642,47.112,0.0549642,8.32389e-13,1.18992e-20,0.00946243,45.5708,8.23041e-05,0.72779,0.322683,0.426289
279.4,35.4879,280.054,35.4329,45.0823,0.0549641,45.1373,0.0549641,1.94628e-13,4.61246e-21,0.00933297,43.6649,7.98057e-05,0.710288,0.315857,0.381818
279.3,42.6079,279.954,42.5529,43.2349,0.054964,43.2899,0.054964,4.25421e-14,1.77259e-21,0.00920616,41.879,7.74196e-05,0.693407,0.309245,0.344048
279.2,26.7145,279.854,26.6595,41.5036,0.0549638,41.5586,0.0549638,1.01806e-14,6.75373e-22,0.00908191,40.2028,7.51394e-05,0.67712,0.302839,0.311681
279.1,29.8014,279.754,29.7464,39.8784,0.0549636,39.9334,0.0549636,0.0,2.55117e-22,0.00896016,38.6277,7.29587e-05,0.661399,0.29663,0.283723
279.0,11.8654,279.6537,11.8105,38.3505,0.0549635,38.4054,0.0549635,0.0,9.5542e-23,0.00884084,37.1453,7.08719e-05,0.646217,0.290611,0.2594
278.9,6.89427,279.554,6.83931,36.9118,0.0549634,36.9668,0.0549634,0.0,3.5474e-23,0.00872389,35.7486,6.88736e-05,0.631551,0.284773,0.238103
278.8,22.9401,279.454,22.8852,35.5553,0.0549634,35.6103,0.0549634,0.0,1.30583e-23,0.00860924,34.4308,6.69589e-05,0.617377,0.27911,0.219345
278.7,16.0,279.354,15.945,34.2747,0.0549633,34.3297,0.0549633,0.0,4.76564e-24,0.00849684,33.1862,6.51232e-05,0.603674,0.273614,0.202736
278.6,0.0,279.254,-0.0549632,33.0643,0.0549632,33.1192,0.0549632,0.0,1.72431e-24,0.00838663,32.0091,6.33622e-05,0.590421,0.268279,0.187957
278.5,16.0,279.1537,15.945,31.9187,0.0549632,31.9736,0.0549632,0.0,6.18546e-25,0.00827855,30.8949,6.16718e-05,0.577599,0.263099,0.174746
278.4,18.0,279.054,17.945,30.8333,0.0549631,30.8883,0.0549631,0.0,2.19982e-25,0.00817254,29.8389,6.00484e-05,0.565189,0.258067,0.16289
278.3,29.0,278.954,28.945,29.8039,0.0549631,29.8589,0.0549631,0.0,7.75645e-26,0.00806856,28.8372,5.84884e-05,0.553174,0.253179,0.152206
278.2,31.0,278.854,30.945,28.8265,0.0549629,28.8815,0.0549629,0.0,2.71143e-26,0.00796655,27.886,5.69885e-05,0.541537,0.248428,0.142546
278.1,34.0,278.754,33.945,27.8977,0.0549628,27.9527,0.0549628,0.0,9.39711e-27,0.00786646,26.9819,5.55458e-05,0.530263,0.24381,0.133781
278.0,15.0,278.6537,14.945,27.0141,0.0549626,27.0691,0.0549626,0.0,3.22886e-27,0.00776825,26.1219,5.41572e-05,0.519337,0.23932,0.125804
277.9,4.0,278.554,3.94504,26.1729,0.0549625,26.2278,0.0549625,0.0,1.09993e-27,0.00767186,25.3029,5.28203e-05,0.508744,0.234953,0.118523
277.8,8.0,278.454,7.94504,25.3712,0.0549625,25.4262,0.0549625,0.0,3.71485e-28,0.00757726,24.5225,5.15323e-05,0.498471,0.230704,0.111859
277.7,16.0,278.354,15.945,24.6066,0.0549625,24.6616,0.0549625,0.0,1.24388e-28,0.00748439,23.7783,5.0291e-05,0.488506,0.22657,0.105743
277.6,31.0,278.254,30.945,23.8768,0.0549624,23.9318,0.0549624,0.0,4.12926e-29,0.00739323,23.0679,4.90941e-05,0.478836,0.222546,0.100117
277.5,5.0,278.1537,4.94504,23.1797,0.0549622,23.2346,0.0549622,0.0,1.35903e-29,0.00730372,22.3893,4.79395e-05,0.46945,0.218629,0.0949304
277.4,13.0,278.054,12.945,22.5132,0.0549622,22.5682,0.0549622,0.0,4.43449e-30,0.00721582,21.7407,4.68252e-05,0.460337,0.214814,0.0901377
277.3,27.0,277.954,26.945,21.8757,0.0549622,21.9306,0.0549622,0.0,1.43456e-30,0.0071295,21.1202,4.57494e-05,0.451486,0.211098,0.0857
277.2,11.0,277.854,10.945,21.2653,0.054962,21.3203,0.054962,0.0,4.60104e-31,0.00704473,20.5263,4.47104e-05,0.442888,0.207477,0.0815831
277.1,7.0,277.754,6.94504,20.6806,0.054962,20.7356,0.054962,0.0,1.46302e-31,0.00696145,19.9574,4.37064e-05,0.434532,0.20395,0.0777567
277.0,24.0,277.6537,23.945,20.1202,0.0549619,20.1751,0.0549619,0.0,4.61219e-32,0.00687964,19.4121,4.27359e-05,0.42641,0.200511,0.074194