File: XPS/LG4X-result/MX-UT-0.1-O1s.csv
#No of rows lightened (2D detector)1(if not using 2D detector, value is 1 and can be ignored!),,,,,,,,
raw_x,raw_y,corrected x,data-bg,sum_components,bg,sum_fit,bg_shirley_,C-O,TiO2
540,134,540.6539,-53.099,3.43468e-06,187.099,187.099,187.099,3.43468e-06,9.95344e-174
539.9,218,540.5539,30.901,5.62741e-06,187.099,187.099,187.099,5.62741e-06,1.98283e-170
539.8,139,540.4539,-48.099,9.16432e-06,187.099,187.099,187.099,9.16432e-06,3.67673e-167
539.7,248,540.3539,60.901,1.48341e-05,187.099,187.099,187.099,1.48341e-05,6.34599e-164
539.6,52,540.2539,-135.099,2.38666e-05,187.099,187.099,187.099,2.38666e-05,1.01953e-160
539.5,241,540.1539,53.901,3.81671e-05,187.099,187.099,187.099,3.81671e-05,1.52463e-157
539.4,320,540.0539,132.901,6.06676e-05,187.099,187.099,187.099,6.06676e-05,2.12222e-154
539.3,158,539.9539,-29.099,9.58502e-05,187.099,187.099,187.099,9.58502e-05,2.74965e-151
539.2,89,539.8539,-98.099,0.000150522,187.099,187.099,187.099,0.000150522,3.31611e-148
539.1,152,539.7539,-35.099,0.000234949,187.099,187.099,187.099,0.000234949,3.72257e-145
539,117,539.6539,-70.099,0.000364516,187.099,187.099,187.099,0.000364516,3.88973e-142
538.9,68,539.5539,-119.099,0.000562121,187.099,187.1,187.099,0.000562121,3.7832e-139
538.8,254,539.4539,66.901,0.000861611,187.099,187.1,187.099,0.000861611,3.425e-136
538.7,282,539.3539,94.901,0.00131269,187.099,187.1,187.099,0.00131269,2.88619e-133
538.6,178,539.2539,-9.09902,0.00198784,187.099,187.101,187.099,0.00198784,2.26387e-130
538.5,142,539.1539,-45.099,0.00299206,187.099,187.102,187.099,0.00299206,1.65288e-127
538.4,102,539.0539,-85.099,0.00447639,187.099,187.104,187.099,0.00447639,1.1233e-124
538.3,149,538.9539,-38.099,0.00665663,187.099,187.106,187.099,0.00665663,7.10573e-122
538.2,20,538.8539,-167.099,0.00983898,187.099,187.109,187.099,0.00983898,4.18395e-119
538.1,39,538.7539,-148.099,0.0144549,187.099,187.113,187.099,0.0144549,2.29312e-116
538,169,538.6539,-18.099,0.0211081,187.099,187.12,187.099,0.0211081,1.16985e-113
537.9,222,538.5539,34.901,0.0306373,187.099,187.13,187.099,0.0306373,5.55514e-111
537.8,99,538.4539,-88.099,0.0442,187.099,187.143,187.099,0.0442,2.4554e-108
537.7,126,538.3539,-61.099,0.0633816,187.099,187.162,187.099,0.0633816,1.01021e-105
537.6,104,538.2539,-83.099,0.0903385,187.099,187.189,187.099,0.0903385,3.86872e-103
537.5,136,538.1539,-51.099,0.127983,187.099,187.227,187.099,0.127983,1.37906e-100
537.4,0,538.0539,-187.099,0.180218,187.099,187.279,187.099,0.180218,4.57574e-98
537.3,162.144,537.9539,-24.9551,0.252241,187.099,187.351,187.099,0.252241,1.4132e-95
537.2,219.483,537.8539,32.3836,0.350914,187.099,187.45,187.099,0.350914,4.06262e-93
537.1,165.825,537.7539,-21.2744,0.485239,187.099,187.584,187.099,0.485239,1.08711e-90
537,91.0526,537.6539,-96.0464,0.666929,187.099,187.766,187.099,0.666929,2.70771e-88
536.9,286.388,537.5539,99.2886,0.911113,187.099,188.01,187.099,0.911113,6.2776e-86
536.8,218.836,537.4539,31.7371,1.23718,187.099,188.336,187.099,1.23718,1.35472e-83
536.7,155.168,537.3539,-31.931,1.6698,187.099,188.769,187.099,1.6698,2.72123e-81
536.6,195.479,537.2539,8.38024,2.24008,187.099,189.339,187.099,2.24008,5.08798e-79
536.5,265.889,537.1539,78.7897,2.98698,187.099,190.086,187.099,2.98698,8.85497e-77
536.4,201.303,537.0539,14.2044,3.95886,187.099,191.058,187.099,3.95886,1.43447e-74
536.3,255.709,536.9539,68.6101,5.21527,187.099,192.314,187.099,5.21527,2.16302e-72
536.2,158.076,536.8539,-29.0227,6.82892,187.099,193.928,187.099,6.82892,3.03592e-70
536.1,278.464,536.7539,91.3648,8.88785,187.099,195.987,187.099,8.88785,3.96627e-68
536,312.989,536.6539,125.89,11.4977,187.099,198.597,187.099,11.4977,4.82323e-66
535.9,95.3512,536.5539,-91.7478,14.784,187.099,201.883,187.099,14.784,5.45954e-64
535.8,94.5198,536.4539,-92.5793,18.8949,187.099,205.994,187.099,18.8949,5.75224e-62
535.7,216.796,536.3539,29.6971,24.003,187.099,211.102,187.099,24.003,5.64132e-60
535.6,195.162,536.2539,8.0627,30.3078,187.099,217.407,187.099,30.3078,5.14975e-58
535.5,371.665,536.1539,184.566,38.0376,187.099,225.137,187.099,38.0376,4.37577e-56
535.4,206.178,536.0539,19.0787,47.4505,187.099,234.55,187.099,47.4505,3.46088e-54
535.3,362.683,535.9539,175.584,58.8353,187.099,245.934,187.099,58.8353,2.54789e-52
535.2,272.246,535.8539,85.1472,72.5109,187.099,259.61,187.099,72.5109,1.74597e-50
535.1,395.839,535.7539,208.74,88.8256,187.099,275.925,187.099,88.8256,1.11367e-48
535,381.529,535.6539,194.43,108.154,187.099,295.253,187.099,108.154,6.61207e-47
534.9,347.176,535.5539,160.077,130.892,187.099,317.991,187.099,130.892,3.65411e-45
534.8,330.778,535.4539,143.679,157.455,187.099,344.554,187.099,157.455,1.8797e-43
534.7,311.348,535.3539,124.249,188.264,187.099,375.363,187.099,188.264,9.00033e-42
534.6,364.948,535.2539,177.849,223.741,187.099,410.84,187.099,223.741,4.01135e-40
534.5,373.603,535.1539,186.504,264.298,187.099,451.397,187.099,264.298,1.66412e-38
534.4,372.265,535.0539,185.166,310.322,187.099,497.421,187.099,310.322,6.42604e-37
534.3,396.948,534.9539,209.849,362.159,187.099,549.258,187.099,362.159,2.30974e-35
534.2,664.891,534.8539,477.792,420.102,187.099,607.201,187.099,420.102,7.72763e-34
534.1,667.073,534.7539,479.974,484.372,187.099,671.471,187.099,484.372,2.40653e-32
534,689.277,534.6539,502.178,555.102,187.099,742.201,187.099,555.102,6.9759e-31
533.9,817.614,534.5539,630.515,632.317,187.099,819.416,187.099,632.317,1.88222e-29
533.8,886.127,534.4539,699.028,715.924,187.099,903.023,187.099,715.924,4.7272e-28
533.7,981.784,534.3539,794.685,805.689,187.099,992.788,187.099,805.689,1.1051e-26
533.6,1036.58,534.2539,849.477,901.233,187.099,1088.33,187.099,901.233,2.40469e-25
533.5,1198.56,534.1539,1011.46,1002.02,187.099,1189.12,187.099,1002.02,4.87057e-24
533.4,1230.72,534.0539,1043.62,1107.35,187.099,1294.44,187.099,1107.35,9.18256e-23
533.3,1380.03,533.9539,1192.93,1216.35,187.099,1403.45,187.099,1216.35,1.61143e-21
533.2,1563.65,533.8539,1376.55,1328.02,187.099,1515.12,187.099,1328.02,2.6322e-20
533.1,1668.51,533.7539,1481.42,1441.19,187.099,1628.28,187.099,1441.19,4.00213e-19
533,1709.51,533.6539,1522.41,1554.55,187.099,1741.64,187.099,1554.55,5.66403e-18
532.9,1926.74,533.5539,1739.64,1666.7,187.099,1853.79,187.099,1666.7,7.46144e-17
532.8,2079.3,533.4539,1892.2,1776.14,187.099,1963.24,187.099,1776.14,9.14919e-16
532.7,2086.99,533.3539,1899.9,1881.34,187.099,2068.44,187.099,1881.34,1.04425e-14
532.6,2291.88,533.2539,2104.78,1980.74,187.099,2167.84,187.099,1980.74,1.1094e-13
532.5,2142.82,533.1539,1955.72,2072.8,187.099,2259.89,187.099,2072.8,1.09708e-12
532.4,2354.81,533.0539,2167.71,2156.03,187.099,2343.13,187.099,2156.03,1.00983e-11
532.3,2528.14,532.9539,2341.04,2229.05,187.099,2416.15,187.099,2229.05,8.65208e-11
532.2,2355.48,532.8539,2168.38,2290.64,187.099,2477.74,187.099,2290.64,6.90011e-10
532.1,2469.76,532.7539,2282.66,2339.7,187.099,2526.8,187.099,2339.7,5.12217e-09
532,2555.22,532.6539,2368.12,2375.39,187.099,2562.49,187.099,2375.39,3.53928e-08
531.9,2666.86,532.5539,2479.76,2397.05,187.099,2584.15,187.099,2397.05,2.27635e-07
531.8,2704.62,532.4539,2517.52,2404.3,187.099,2591.4,187.099,2404.3,1.36278e-06
531.7,2522.26,532.3539,2335.16,2397.01,187.099,2584.11,187.099,2397.01,7.59404e-06
531.6,2478.7,532.2539,2291.6,2375.3,187.099,2562.4,187.099,2375.3,3.93898e-05
531.5,2565.18,532.1539,2378.08,2339.58,187.099,2526.68,187.099,2339.58,0.000190177
531.4,2544.71,532.0539,2357.62,2290.47,187.099,2477.57,187.099,2290.47,0.000854662
531.3,2441.14,531.9539,2254.04,2228.86,187.099,2415.96,187.099,2228.85,0.00357515
531.2,2368.41,531.8539,2181.31,2155.81,187.099,2342.91,187.099,2155.79,0.0139205
531.1,2150.42,531.7539,1963.32,2072.58,187.099,2259.68,187.099,2072.53,0.0504522
531,2005.11,531.6539,1818.01,1980.63,187.099,2167.73,187.099,1980.46,0.170203
530.9,2035.69,531.5539,1848.6,1881.57,187.099,2068.67,187.099,1881.04,0.534462
530.8,1912.2,531.4539,1725.1,1777.38,187.099,1964.48,187.099,1775.82,1.56217
530.7,1756.45,531.3539,1569.36,1670.62,187.099,1857.71,187.099,1666.36,4.25015
530.6,1727.55,531.2539,1540.45,1564.97,187.099,1752.07,187.099,1554.21,10.7632
530.5,1596.5,531.1539,1409.4,1466.22,187.099,1653.32,187.099,1440.85,25.3712
530.4,1596.33,531.0539,1409.23,1383.36,187.099,1570.45,187.099,1327.69,55.6679
530.3,1710.27,530.9539,1523.17,1329.72,187.099,1516.82,187.099,1216.02,113.692
530.2,1562.17,530.8539,1375.07,1323.16,187.099,1510.26,187.099,1107.03,216.132
530.1,1650.02,530.7539,1462.92,1384.16,187.099,1571.26,187.099,1001.71,382.445
530,1944.21,530.6539,1757.11,1530.86,187.099,1717.96,187.099,900.941,629.916
529.9,2003.72,530.5539,1816.62,1771.15,187.099,1958.25,187.099,805.413,965.736
529.8,2214.46,530.4539,2027.36,2093.82,187.099,2280.92,187.099,715.666,1378.15
529.7,2570.71,530.3539,2383.61,2462.7,187.099,2649.8,187.099,632.078,1830.62
529.6,2896.56,530.2539,2709.46,2818.29,187.099,3005.39,187.099,554.882,2263.41
529.5,3111.89,530.1539,2924.79,3089.06,187.099,3276.16,187.099,484.171,2604.89
529.4,3480.74,530.0539,3293.65,3210.39,187.099,3397.49,187.099,419.92,2790.47
529.3,3394.85,529.9539,3207.75,3144.46,187.099,3331.56,187.099,361.996,2782.47
529.2,3154.66,529.8539,2967.56,2892.7,187.099,3079.8,187.099,310.176,2582.52
529.1,2868.01,529.7539,2680.91,2495.28,187.099,2682.38,187.099,264.17,2231.11
529,2213.52,529.6539,2026.42,2017.79,187.099,2204.89,187.099,223.628,1794.16
528.9,1594.9,529.5539,1407.8,1531.13,187.099,1718.23,187.099,188.165,1342.96
528.8,1116.3,529.4539,929.205,1093.05,187.099,1280.15,187.099,157.37,935.682
528.7,806.009,529.3539,618.911,737.634,187.099,924.732,187.099,130.819,606.815
528.6,657.308,529.2539,470.21,474.399,187.099,661.498,187.099,108.091,366.308
528.5,521.354,529.1539,334.256,294.598,187.099,481.697,187.099,88.7728,205.826
528.4,387.161,529.0539,200.062,180.117,187.099,367.215,187.099,72.4665,107.65
528.3,466.919,528.9539,279.82,111.206,187.099,298.304,187.099,58.7982,52.4074
528.2,360.653,528.8539,173.555,71.1681,187.099,258.267,187.099,47.4198,23.7484
528.1,333.269,528.7539,146.171,48.0293,187.099,235.128,187.099,38.0123,10.017
528,231.771,528.6539,44.6723,34.2199,187.099,221.318,187.099,30.2871,3.93281
527.9,307.249,528.5539,120.151,25.4234,187.099,212.522,187.099,23.9861,1.43725
527.8,279.77,528.4539,92.6718,19.3702,187.099,206.469,187.099,18.8813,0.488903
527.7,220.214,528.3539,33.1156,14.9279,187.099,202.026,187.099,14.7731,0.154802
527.6,219.604,528.2539,32.5059,11.5346,187.099,198.633,187.099,11.489,0.045624
527.5,226,528.1539,38.9015,8.89349,187.099,195.992,187.099,8.88097,0.0125162
527.4,0,528.0539,-187.099,6.82671,187.099,193.925,187.099,6.82351,0.00319606
527.3,110,527.9539,-77.0985,5.2118,187.099,192.31,187.099,5.21104,0.00075966
527.2,36,527.8539,-151.099,3.95575,187.099,191.054,187.099,3.95558,0.000168068
527.1,188,527.7539,0.901449,2.98449,187.099,190.083,187.099,2.98445,3.46111e-05
527,154,527.6539,-33.0986,2.23815,187.099,189.337,187.099,2.23815,6.6345e-06
526.9,313,527.5539,125.901,1.66833,187.099,188.767,187.099,1.66833,1.18376e-06
526.8,304,527.4539,116.901,1.23607,187.099,188.335,187.099,1.23607,1.96599e-07
526.7,212,527.3539,24.9015,0.910276,187.099,188.009,187.099,0.910276,3.03921e-08
526.6,259,527.2539,71.9015,0.666304,187.099,187.765,187.099,0.666304,4.37325e-09
526.5,266,527.1539,78.9015,0.484776,187.099,187.583,187.099,0.484776,5.85746e-10
526.4,231,527.0539,43.9015,0.350573,187.099,187.449,187.099,0.350573,7.3026e-11
526.3,152,526.9539,-35.0985,0.251991,187.099,187.351,187.099,0.251991,8.47439e-12
526.2,175,526.8539,-12.0985,0.180037,187.099,187.279,187.099,0.180037,9.15381e-13
526.1,151,526.7539,-36.0985,0.127851,187.099,187.226,187.099,0.127851,9.2036e-14
526,165,526.6539,-22.0985,0.0902442,187.099,187.189,187.099,0.0902442,8.61344e-15
525.9,287,526.5539,99.9015,0.0633143,187.099,187.162,187.099,0.0633143,7.5034e-16
525.8,210,526.4539,22.9015,0.0441523,187.099,187.143,187.099,0.0441523,6.08418e-17
525.7,216,526.3539,28.9015,0.0306037,187.099,187.129,187.099,0.0306037,4.59207e-18
525.6,339,526.2539,151.901,0.0210845,187.099,187.12,187.099,0.0210845,3.2261e-19
525.5,168,526.1539,-19.0985,0.0144385,187.099,187.113,187.099,0.0144385,2.10965e-20
525.4,173,526.0539,-14.0985,0.00982764,187.099,187.108,187.099,0.00982764,1.28411e-21
525.3,150,525.9539,-37.0985,0.00664884,187.099,187.105,187.099,0.00664884,7.27547e-23
525.2,355,525.8539,167.901,0.00447107,187.099,187.103,187.099,0.00447107,3.8369e-24
525.1,279,525.7539,91.9015,0.00298845,187.099,187.102,187.099,0.00298845,1.88349e-25
525,235,525.6539,47.9015,0.00198541,187.099,187.101,187.099,0.00198541,8.60613e-27