File: XPS/LG4X-result/MX-UT-0.1-1-C1s.csv
#No of rows lightened (2D detector)1(if not using 2D detector, value is 1 and can be ignored!)
raw_x,raw_y,corrected x,data-bg,sum_components,bg,sum_fit,C=C,pi-pi,pi-pi*2,C-C,C-O,C=O,TiC
295.0,777.0,295.4017,46.0,-700.08,731.0,30.9203,10.8929,8.5354,0.0462558,3.37444,6.92631,1.05714,0.0878543
294.9,766.0,295.302,35.0,-699.101,731.0,31.8987,11.0957,9.04333,0.0615556,3.4408,7.08007,1.08808,0.0891816
294.8,732.0,295.202,1.0,-698.048,731.0,32.9525,11.3041,9.60329,0.0859962,3.50913,7.23899,1.12041,0.0905392
294.7,739.0,295.102,8.0,-696.901,731.0,34.0995,11.5185,10.2232,0.128743,3.57952,7.4033,1.15421,0.0919281
294.6,810.0,295.002,79.0,-695.625,731.0,35.3745,11.7391,10.9127,0.214535,3.65204,7.57324,1.18958,0.0933491
294.5,765.0,294.9017,34.0,-694.12,731.0,36.8803,11.966,11.6831,0.43386,3.72679,7.74908,1.22662,0.0948034
294.4,731.0,294.802,0.0,-691.536,731.0,39.4638,12.1996,12.5481,1.61947,3.80385,7.93109,1.26544,0.0962919
294.3,818.0,294.702,87.1381,-659.905,730.862,70.9573,12.4401,13.5238,31.5866,3.88333,8.11956,1.30614,0.0978157
294.2,826.0,294.602,95.4273,-642.804,730.573,87.7689,12.6877,14.6297,46.7231,3.96533,8.31479,1.34886,0.0993761
294.1,781.0,294.502,50.6587,-684.729,730.341,45.6124,12.9429,15.8886,2.71912,4.04994,8.51712,1.39374,0.100974
294.0,771.0,294.4017,40.8036,-684.735,730.196,45.4615,13.2058,17.3276,0.520404,4.13729,8.72689,1.44092,0.102611
293.9,760.0,294.302,29.9157,-682.62,730.084,47.4641,13.4768,18.9784,0.242091,4.2275,8.94446,1.49056,0.104288
293.8,748.0,294.202,17.9916,-680.093,730.008,49.9149,13.7563,20.8778,0.141118,4.32069,9.17023,1.54285,0.106006
293.7,774.0,294.102,44.0899,-677.178,729.91,52.7324,14.0445,23.0679,0.0926244,4.41699,9.40462,1.59797,0.107767
293.6,747.0,294.002,17.187,-673.878,729.813,55.9347,14.3419,25.597,0.0655214,4.51654,9.64806,1.65614,0.109573
293.5,776.0,293.9017,46.2876,-670.146,729.712,59.566,14.6488,28.5188,0.0488176,4.6195,9.90102,1.7176,0.111424
293.4,789.0,293.802,59.4551,-665.862,729.545,63.6825,14.9657,31.893,0.0377883,4.72601,10.164,1.78258,0.113323
293.3,823.0,293.702,93.6978,-660.955,729.302,68.3477,15.293,35.7841,0.0301218,4.83625,10.4376,1.85138,0.11527
293.2,834.0,293.602,105.013,-655.357,728.987,73.6307,15.6312,40.2608,0.0245757,4.95038,10.7222,1.92431,0.117269
293.1,804.0,293.502,75.2982,-649.098,728.702,79.6035,15.9807,45.3941,0.0204334,5.0686,11.0186,2.00171,0.119319
293.0,809.0,293.4017,80.5451,-642.116,728.455,86.3389,16.3421,51.2556,0.0172578,5.1911,11.3274,2.08395,0.121424
292.9,840.0,293.302,111.85,-634.242,728.15,93.9076,16.7158,57.9145,0.0147695,5.3181,11.6493,2.17146,0.123585
292.8,782.0,293.202,54.1129,-625.512,727.887,102.375,17.1026,65.4342,0.0127835,5.4498,11.985,2.2647,0.125805
292.7,826.0,293.102,98.3544,-615.849,727.646,111.796,17.5029,73.8683,0.011173,5.58646,12.3353,2.36421,0.128084
292.6,867.0,293.002,139.732,-605.054,727.268,122.214,17.9174,83.2564,0.00984892,5.72831,12.7011,2.47056,0.130426
292.5,888.0,292.9017,161.208,-593.14,726.792,133.651,18.3469,93.6194,0.00874714,5.87563,13.0833,2.58441,0.132834
292.4,898.0,292.802,171.736,-580.157,726.264,146.107,18.792,104.954,0.0078205,6.02871,13.4828,2.70651,0.135308
292.3,867.0,292.702,141.232,-566.214,725.768,159.554,19.2535,117.23,0.00703375,6.18783,13.9008,2.83768,0.137852
292.2,884.0,292.602,158.707,-551.361,725.293,173.932,19.7322,130.382,0.00636007,6.35333,14.3384,2.97888,0.140469
292.1,922.0,292.502,197.271,-535.586,724.729,189.143,20.229,144.312,0.00577877,6.52556,14.7969,3.13119,0.14316
292.0,919.0,292.4017,194.892,-519.052,724.108,205.056,20.7448,158.882,0.00527371,6.70487,15.2774,3.29583,0.14593
291.9,963.0,292.302,239.581,-501.921,723.419,221.499,21.2805,173.917,0.0048321,6.89167,15.7816,3.47423,0.148781
291.8,991.0,292.202,268.385,-484.351,722.615,238.264,21.8374,189.205,0.00444374,7.08638,16.3109,3.668,0.151717
291.7,966.0,292.102,244.197,-466.691,721.803,255.111,22.4163,204.501,0.0041004,7.28944,16.867,3.87903,0.15474
291.6,1002.0,292.002,281.03,-449.197,720.97,271.773,23.0187,219.53,0.00379537,7.50135,17.4518,4.10952,0.157855
291.5,1024.0,291.9017,303.956,-432.082,720.044,287.962,23.6456,234,0.00352317,7.72262,18.0672,4.36201,0.161065
291.4,1010.0,291.802,290.899,-415.721,719.101,303.38,24.2985,247.605,0.00327924,7.95381,18.7154,4.63952,0.164373
291.3,1013.0,291.702,294.827,-400.443,718.173,317.731,24.9788,260.041,0.0030598,8.19552,19.3987,4.94557,0.167785
291.2,1038.0,291.602,320.802,-386.469,717.198,330.729,25.6882,271.014,0.00286168,8.44841,20.1197,5.28436,0.171304
291.1,1059.0,291.502,342.853,-374.031,716.147,342.116,26.4282,280.255,0.00268219,8.71316,20.8812,5.66085,0.174935
291.0,1073.0,291.4017,357.964,-363.37,715.036,351.666,27.2006,287.527,0.00251909,8.99054,21.6862,6.08099,0.178682
290.9,1094.0,291.302,380.133,-354.663,713.867,359.204,28.0075,292.64,0.00237042,9.28136,22.538,6.55185,0.182551
290.8,1070.0,291.202,357.301,-348.091,712.699,364.608,28.8507,295.46,0.00223454,9.58649,23.4404,7.08188,0.186548
290.7,1129.0,291.102,417.529,-343.651,711.471,367.819,29.7327,295.909,0.00211001,9.90689,24.3973,7.68119,0.190677
290.6,1078.0,291.002,367.773,-341.38,710.227,368.846,30.6558,293.975,0.00199562,10.2436,25.4131,8.36181,0.194945
290.5,1054.0,290.9017,344.902,-341.334,709.098,367.763,31.6226,289.711,0.00189028,10.5977,26.4927,9.13797,0.199357
290.4,1051.0,290.802,342.992,-343.297,708.008,364.711,32.6358,283.231,0.00179307,10.9705,27.6416,10.0265,0.203922
290.3,1025.0,290.702,318.039,-347.071,706.961,359.89,33.6986,274.705,0.00170317,11.3633,28.8655,11.0468,0.208645
290.2,1037.0,290.602,331.068,-352.379,705.932,353.553,34.8141,264.354,0.00161987,11.7775,30.1711,12.2215,0.213534
290.1,1065.0,290.502,360.163,-358.84,704.837,345.997,35.9861,252.434,0.00154253,12.2147,31.5657,13.576,0.218597
290.0,1056.0,290.4017,352.292,-366.159,703.708,337.549,37.2182,239.233,0.0014706,12.6766,33.0574,15.1385,0.223842
289.9,995.0,290.302,292.313,-374.129,702.687,328.558,38.5148,225.052,0.00140359,13.1652,34.6552,16.9397,0.229279
289.8,1025.0,290.202,323.288,-382.334,701.712,319.378,39.8803,210.198,0.00134106,13.6825,36.3692,19.0116,0.234916
289.7,1038.0,290.102,337.335,-390.306,700.665,310.359,41.3199,194.969,0.00128261,14.2309,38.2106,21.3864,0.240763
289.6,1037.0,290.002,337.404,-397.762,699.596,301.835,42.8388,179.648,0.00122791,14.8128,40.1921,24.0947,0.246832
289.5,977.0,289.9017,278.379,-404.51,698.621,294.111,44.4431,164.491,0.00117663,15.431,42.328,27.1631,0.253133
289.4,1001.0,289.802,303.301,-410.241,697.699,287.458,46.1393,149.724,0.0011285,16.0886,44.634,30.6114,0.259679
289.3,990.0,289.702,293.246,-414.65,696.754,282.104,47.9345,135.535,0.00108326,16.7891,47.1284,34.4493,0.266482
289.2,972.0,289.602,276.148,-417.624,695.852,278.228,49.8366,122.076,0.00104069,17.5361,49.8315,38.673,0.273556
289.1,1001.0,289.502,306.071,-418.969,694.929,275.96,51.8542,109.462,0.00100058,18.334,52.7664,43.2619,0.280915
289.0,992.0,289.4017,298.028,-418.596,693.972,275.377,53.9967,97.7681,0.000962749,19.1874,55.9593,48.1755,0.288576
288.9,985.0,289.302,291.962,-416.534,693.038,276.504,56.2748,87.0379,0.000927021,20.1016,59.4404,53.3514,0.296555
288.8,945.0,289.202,252.825,-412.854,692.175,279.32,58.7,77.2845,0.000893245,21.0824,63.2437,58.704,0.304869
288.7,970.0,289.102,278.668,-407.567,691.332,283.766,61.2852,68.4955,0.000861283,22.1365,67.4083,64.1258,0.313538
288.6,975.0,289.002,284.56,-400.695,690.44,289.745,64.0447,60.6377,0.000831006,23.2714,71.9793,69.489,0.322583
288.5,962.0,288.9017,272.442,-392.414,689.558,297.143,66.9942,53.6622,0.000802298,24.4954,77.0083,74.6503,0.332024
288.4,989.0,288.802,300.35,-382.817,688.65,305.833,70.1516,47.5087,0.000775052,25.8181,82.5549,79.457,0.341887
288.3,967.0,288.702,279.268,-372.04,687.732,315.692,73.5364,42.1099,0.000749171,27.2503,88.6877,83.7546,0.352196
288.2,1044.0,288.602,357.277,-360.108,686.723,326.616,77.1707,37.3948,0.000724565,28.8044,95.4863,87.3956,0.362978
288.1,1052.0,288.502,366.423,-347.045,685.577,338.532,81.0792,33.2917,0.000701152,30.4946,103.043,90.2482,0.374264
288.0,1008.0,288.4017,323.516,-333.07,684.484,351.413,85.2895,29.731,0.000678856,32.3371,111.464,92.2052,0.386085
287.9,1055.0,288.302,371.618,-318.09,683.382,365.293,89.8327,26.6464,0.000657607,34.3506,120.873,93.191,0.398475
287.8,1083.0,288.202,400.841,-301.89,682.159,380.269,94.7438,23.9763,0.00063734,36.557,131.413,93.1668,0.411472
287.7,1052.0,288.102,371.064,-284.419,680.936,396.517,100.063,21.6646,0.000617995,38.9813,143.249,92.1336,0.425115
287.6,1079.0,288.002,399.285,-265.426,679.715,414.289,105.834,19.6612,0.000599519,41.653,156.569,90.132,0.439449
287.5,1116.0,287.9017,437.611,-244.469,678.389,433.92,112.108,17.9216,0.000581858,44.6067,171.59,87.2392,0.454521
287.4,1153.0,287.802,476.058,-221.121,676.942,455.82,118.943,16.4069,0.000564967,47.8832,188.552,83.5639,0.470383
287.3,1168.0,287.702,492.593,-194.938,675.407,480.469,126.406,15.0837,0.000548801,51.5306,207.723,79.2386,0.48709
287.2,1178.0,287.602,504.172,-165.423,673.828,508.405,134.572,13.9232,0.000533319,55.6067,229.387,74.4114,0.504704
287.1,1252.0,287.502,579.889,-131.908,672.111,540.202,143.528,12.901,0.000518483,60.1804,253.832,69.2371,0.523292
287.0,1254.0,287.4017,583.733,-93.8226,670.267,576.444,153.376,11.9964,0.000504257,65.3351,281.325,63.868,0.542927
286.9,1250.0,287.302,581.579,-50.7422,668.421,617.679,164.233,11.1922,0.000490609,71.172,312.071,58.4468,0.563689
286.8,1329.0,287.202,662.55,-2.1005,666.45,664.349,176.236,10.4738,0.000477508,77.8152,346.138,53.1002,0.585666
286.7,1344.0,287.102,679.677,52.3827,664.323,716.706,189.547,9.82887,0.000464925,85.4174,383.368,47.9351,0.608956
286.6,1449.0,287.002,787,112.686,662,774.685,204.356,9.24736,0.000452832,94.169,423.243,43.0358,0.633664
286.5,1563.0,286.9017,903.679,178.457,659.321,837.778,220.893,8.72072,0.000441206,104.308,464.732,38.4635,0.659909
286.4,1590.0,286.802,933.59,248.506,656.41,904.916,239.431,8.24179,0.000430021,116.138,506.159,34.2578,0.687821
286.3,1620.0,286.702,966.6,321.058,653.4,974.458,260.305,7.80457,0.000419256,130.044,545.148,30.4385,0.717544
286.2,1649.0,286.602,998.714,394.07,650.286,1044.36,283.925,7.40399,0.000408891,146.527,578.742,27.0086,0.749238
286.1,1731.0,286.502,1084.01,465.615,646.986,1112.6,310.801,7.03575,0.000398905,166.24,603.784,23.9578,0.783083
286.0,1812.0,286.4017,1168.58,534.506,643.418,1177.92,341.574,6.69622,0.000389281,190.046,617.523,21.266,0.819276
285.9,1906.0,286.302,1266.44,601.049,639.56,1240.61,377.064,6.38225,0.000380001,219.1,618.298,18.9063,0.858042
285.8,1962.0,286.202,1326.55,667.698,635.452,1303.15,418.334,6.09118,0.000371049,254.964,606.013,16.8481,0.89963
285.7,1944.0,286.102,1312.73,739.274,631.27,1370.54,466.785,5.82068,0.000362409,299.772,582.162,15.059,0.944322
285.6,2124.0,286.002,1497.18,823.422,626.819,1450.24,524.308,5.56874,0.000354068,356.461,549.404,13.507,0.992434
285.5,2178.0,285.9017,1556.02,930.017,621.981,1552,593.503,5.3336,0.000346011,429.072,510.884,12.1617,1.04433
285.4,2305.0,285.802,1688.16,1071.14,616.842,1687.98,678.052,5.11371,0.000338227,523.115,469.606,10.9949,1.1004
285.3,2522.0,285.702,1910.86,1262.08,611.14,1873.22,783.322,4.90773,0.000330702,645.825,428.024,9.98135,1.16113
285.2,2797.0,285.602,2192.36,1521.57,604.639,2126.2,917.439,4.71444,0.000323425,805.828,387.897,9.09863,1.22704
285.1,3084.0,285.502,2486.77,1871.37,597.226,2468.59,1093.28,4.53277,0.000316387,1010.83,350.323,8.32737,1.29873
285.0,3345.0,285.4017,2756.08,2333.21,588.92,2922.13,1332.46,4.36178,0.000309575,1260.41,315.873,7.65093,1.37692
284.9,3971.0,285.302,3391.82,2922.93,579.179,3502.11,1673.87,4.20061,0.000302981,1530.79,284.741,7.05517,1.4624
284.8,4586.0,285.202,4018.56,3652.39,567.439,4219.83,2192.86,4.0485,0.000296595,1757.95,256.876,6.52817,1.55611
284.7,5786.0,285.102,5233.22,4583.38,552.781,5136.16,3040.89,3.90475,0.00029041,1851.56,232.089,6.05991,1.65916
284.6,7339.0,285.002,6805.29,5954.31,533.709,6488.02,4502.9,3.76875,0.000284415,1763.82,210.116,5.642,1.77282
284.5,9569.0,284.9017,9060.43,8226.39,508.573,8734.96,6993.78,3.63992,0.000278605,1539.71,190.669,5.26742,1.89861
284.4,12716.0,284.802,12241.2,11761.5,474.825,12236.3,10782.9,3.51777,0.000272971,1269.5,173.463,4.9303,2.03834
284.3,16689.0,284.702,16259.3,16106,429.671,16535.7,15348.6,3.40181,0.000267505,1018.63,158.229,4.6257,2.19413
284.2,20094.0,284.602,19721.3,19567.4,372.667,19940.1,18973.3,3.29164,0.000262203,812.027,144.722,4.34946,2.36856
284.1,20745.0,284.502,20436,20113.9,309.045,20422.9,19629.8,3.18686,0.000257056,650.602,132.723,4.09807,2.56476
284.0,18010.0,284.4017,17761.5,17200.4,248.529,17448.9,16790.3,3.08711,0.00025206,526.77,122.041,3.86857,2.7865
283.9,12891.0,284.302,12690.7,12361.2,200.284,12561.5,12007.4,2.99208,0.000247208,431.881,112.508,3.6584,3.03844
283.8,8055.0,284.202,7887.32,7746.07,167.682,7913.75,7441.44,2.90145,0.000242495,358.641,103.978,3.4654,3.32638
283.7,4594.0,284.102,4445.86,4504.08,148.142,4652.22,4244.65,2.81497,0.000237915,301.485,96.3266,3.2877,3.65755
283.6,2738.0,284.002,2601.02,2614.26,136.978,2751.24,2395.57,2.73237,0.000233463,256.327,89.4446,3.12367,4.04113
283.5,1805.0,283.9017,1674.8,1598,130.204,1728.21,1414.66,2.65342,0.000229136,220.197,83.2385,2.97192,4.48887
283.4,1346.0,283.802,1220.38,1044.18,125.617,1169.8,890.807,2.5779,0.000224928,190.94,77.6273,2.83122,5.01608
283.3,995.0,283.702,872.699,721.18,122.301,843.481,593.114,2.50562,0.000220834,166.976,72.5412,2.7005,5.64295
283.2,786.0,283.602,666.137,517.883,119.863,637.746,411.274,2.43639,0.000216851,147.14,67.9195,2.57881,6.39659
283.1,614.0,283.502,495.978,381.843,118.022,499.865,293.446,2.37004,0.000212975,130.559,63.7099,2.46533,7.31417
283.0,525.0,283.4017,408.411,286.664,116.589,403.252,213.698,2.3064,0.000209203,116.574,59.8666,2.35932,8.44776
282.9,449.0,283.302,333.587,217.965,115.413,333.379,157.97,2.24533,0.000205529,104.681,56.3498,2.26013,9.87239
282.8,419.0,283.202,304.598,167.346,114.402,281.749,118.081,2.18669,0.000201951,94.4894,53.1249,2.16717,11.6996
282.7,408.0,283.102,294.547,129.715,113.453,243.168,88.9991,2.13035,0.000198466,85.6949,50.1613,2.07992,14.1021
282.6,356.0,283.002,243.399,101.817,112.601,214.417,67.4932,2.07619,0.000195071,78.057,47.4325,1.99792,17.3604
282.5,327.0,282.9017,215.126,81.7434,111.874,193.618,51.4128,2.0241,0.000191762,71.3839,44.9149,1.92074,21.9611
282.4,301.0,282.802,189.767,68.8059,111.233,180.039,39.2857,1.97397,0.000188536,65.5217,42.5878,1.84802,28.8213
282.3,329.0,282.702,218.414,63.807,110.586,174.393,30.0796,1.92571,0.000185391,60.3456,40.433,1.7794,39.8296
282.2,334.0,282.602,224.115,70.0286,109.885,179.914,23.0564,1.87921,0.000182324,55.7536,38.4342,1.71459,59.0755
282.1,351.0,282.502,241.853,95.1639,109.147,204.311,17.679,1.8344,0.000179333,51.6618,36.5771,1.6533,94.9048
282.0,381.0,282.4017,272.668,152.244,108.332,260.576,13.5517,1.79119,0.000176414,48.0008,34.8489,1.59528,160.788
281.9,434.0,282.302,326.618,252.77,107.382,360.152,10.3791,1.74951,0.000173566,44.7126,33.2381,1.5403,268.533
281.8,588.0,282.202,481.899,387.478,106.101,493.579,7.93857,1.70928,0.000170787,41.7486,31.7345,1.48814,408.96
281.7,710.0,282.102,605.622,509.47,104.378,613.848,6.06127,1.67044,0.000168074,39.0679,30.329,1.43862,535.281
281.6,748.0,282.002,645.604,553.522,102.396,655.918,4.61811,1.63293,0.000165425,36.6357,29.0134,1.39155,582.626
281.5,707.0,281.9017,606.588,490.636,100.412,591.048,3.50996,1.59667,0.000162838,34.4224,27.7803,1.34678,522.391
281.4,608.0,281.802,509.356,356.503,98.6441,455.147,2.66044,1.56163,0.000160311,32.4026,26.6231,1.30416,390.595
281.3,393.0,281.702,295.631,216.047,97.3688,313.416,2.01051,1.52773,0.000157843,30.5546,25.5356,1.26355,252.524
281.2,295.0,281.602,198.414,111.275,96.5861,207.861,1.51447,1.49494,0.000155431,28.8595,24.5126,1.22482,150.254
281.1,224.0,281.502,127.931,47.5815,96.0691,143.651,1.13691,1.4632,0.000153075,27.301,23.5491,1.18786,89.0123
281.0,194.0,281.4017,98.2893,12.1734,95.7107,107.884,0.850395,1.43247,0.000150771,25.8649,22.6406,1.15257,55.943
280.9,184.0,281.302,88.5854,-7.8437,95.4146,87.5709,0.633681,1.40271,0.000148519,24.5387,21.783,1.11884,38.0938
280.8,173.0,281.202,77.8491,-20.1607,95.1509,74.9902,0.470336,1.37388,0.000146317,23.3115,20.9727,1.08658,27.7751
280.7,149.0,281.102,54.0581,-28.5347,94.9419,66.4073,0.347674,1.34593,0.000144164,22.1738,20.2063,1.0557,21.2777
280.6,132.0,281.002,37.2027,-34.7128,94.7973,60.0845,0.25592,1.31883,0.000142057,21.117,19.4808,1.02613,16.8857
280.5,133.0,280.9017,38.3223,-39.5154,94.6777,55.1623,0.187566,1.29255,0.000139997,20.1338,18.7932,0.997802,13.7572
280.4,140.0,280.802,45.455,-43.3714,94.545,51.1736,0.136859,1.26706,0.000137981,19.2175,18.141,0.970635,11.4404
280.3,125.0,280.702,30.5755,-46.5819,94.4245,47.8426,0.0994075,1.24232,0.000136009,18.3621,17.5219,0.94457,9.67216
280.2,133.0,280.602,38.6852,-49.3191,94.3148,44.9956,0.07187,1.2183,0.000134078,17.5624,16.9337,0.919549,8.28969
280.1,118.0,280.502,23.7842,-51.6984,94.2158,42.5174,0.0517156,1.19497,0.000132188,16.8137,16.3743,0.895515,7.18707
280.0,117.0,280.4017,22.8581,-53.8135,94.1419,40.3284,0.0370345,1.17232,0.000130338,16.1117,15.842,0.872417,6.29281
279.9,121.0,280.302,26.937,-55.6912,94.063,38.3718,0.0263918,1.15031,0.000128527,15.4527,15.335,0.850207,5.55706
279.8,135.0,280.202,41.0447,-57.3496,93.9553,36.6057,0.0187145,1.12891,0.000126753,14.8332,14.8517,0.82884,4.94416
279.7,131.0,280.102,37.1686,-58.8327,93.8314,34.9987,0.013204,1.10811,0.000125015,14.2501,14.3908,0.808273,4.42803
279.6,120.0,280.002,26.2691,-60.2044,93.7309,33.5264,0.00926879,1.08789,0.000123313,13.7007,13.9508,0.788467,3.98919
279.5,126.0,279.9017,32.362,-61.468,93.638,32.17,0.00647302,1.06822,0.000121645,13.1823,13.5306,0.769383,3.61285
279.4,131.0,279.802,37.4726,-62.6133,93.5274,30.914,0.00449711,1.04908,0.000120012,12.6928,13.129,0.750989,3.28763
279.3,115.0,279.702,21.5662,-63.6875,93.4338,29.7463,0.00310799,1.03045,0.00011841,12.23,12.7448,0.733249,3.00462
279.2,114.0,279.602,20.633,-64.7104,93.367,28.6566,0.0021366,1.01232,0.000116841,11.7919,12.3771,0.716134,2.7568
279.1,126.0,279.502,32.7176,-65.646,93.2824,27.6365,0.00146099,0.994665,0.000115302,11.377,12.0251,0.699615,2.53854
279.0,135.0,279.4017,41.8357,-66.4856,93.1643,26.6788,0.000993646,0.977471,0.000113794,10.9835,11.6877,0.683663,2.3453
278.9,120.0,279.302,26.9446,-67.2779,93.0554,25.7775,0.000672138,0.960722,0.000112315,10.6101,11.3643,0.668253,2.17339
278.8,101.0,279.202,8.0,-68.0726,93.0,24.9274,0.00045218,0.944403,0.000110865,10.2553,11.054,0.653361,2.01977
278.7,93.0,279.102,0.0,-68.876,93.0,24.124,0.000302534,0.928498,0.000109443,9.91806,10.7562,0.638964,1.88192
278.6,99.0,279.002,6.0,-69.6366,93.0,23.3634,0.000201295,0.912994,0.000108048,9.59712,10.4702,0.625039,1.75776
278.5,111.0,278.9017,18.0,-70.3579,93.0,22.6421,0.00013319,0.897877,0.000106679,9.29149,10.1954,0.611567,1.64552
278.4,104.0,278.802,11.0,-71.043,93.0,21.957,8.76356e-05,0.883135,0.000105336,9.0002,9.93116,0.598528,1.54373
278.3,113.0,278.702,20.0,-71.6946,93.0,21.3054,5.7338e-05,0.868755,0.000104019,8.72238,9.67706,0.585903,1.45112
278.2,112.0,278.602,19.0,-72.3151,93.0,20.6849,3.73033e-05,0.854725,0.000102726,8.45721,9.43253,0.573675,1.36661
278.1,119.0,278.502,26.0,-72.9067,93.0,20.0933,2.41314e-05,0.841034,0.000101457,8.20393,9.19712,0.561827,1.2893
278.0,126.0,278.4017,33.0,-73.4713,93.0,19.5287,1.55217e-05,0.827671,0.000100211,7.96185,8.97036,0.550344,1.21837
277.9,103.0,278.302,10.0,-74.0107,93.0,18.9893,9.92668e-06,0.814625,9.89884e-05,7.73031,8.75185,0.539211,1.15315
277.8,102.0,278.202,9.0,-74.5266,93.0,18.4734,6.31202e-06,0.801888,9.77878e-05,7.50871,8.54119,0.528414,1.09304
277.7,109.0,278.102,16.0,-75.0205,93.0,17.9795,3.99045e-06,0.789448,9.66089e-05,7.2965,8.33801,0.517939,1.03752
277.6,102.0,278.002,9.0,-75.4936,93.0,17.5064,2.50817e-06,0.777296,9.54512e-05,7.09314,8.14197,0.507773,0.986129
277.5,97.0,277.9017,4.0,-75.9472,93.0,17.0528,1.56734e-06,0.765425,9.43142e-05,6.89816,7.95273,0.497905,0.93847
277.4,101.0,277.802,8.0,-76.3825,93.0,16.6175,9.73717e-07,0.753825,9.31974e-05,6.7111,7.76998,0.488323,0.894189
277.3,98.0,277.702,5.0,-76.8005,93.0,16.1995,6.01392e-07,0.742487,9.21003e-05,6.53154,7.59344,0.479016,0.852974