File: XPS/LG4X-result/MX-UT-0.5-3-Ti2p.csv
#No of rows lightened (2D detector)1(if not using 2D detector, value is 1 and can be ignored!)
raw_x,raw_y,corrected x,data-bg,sum_components,bg,sum_fit,bg_poly_,C_1,C_2,C_3,C_4,C_5,C_6,C_7,C_8
470.0,425.0,470.6528,226.973,151.94,198.027,349.967,198.027,18.4912,37.6068,44.8741,3.52374,0.00278457,4.59607e-18,33.1223,14.3195
469.9,707.0,470.5528,509.895,153.61,197.105,350.714,197.105,18.7259,38.1087,45.4978,3.60012,0.00285378,1.43293e-17,33.3452,14.329
469.8,541.0,470.453,344.817,155.307,196.183,351.49,196.183,18.9651,38.6208,46.1346,3.67904,0.00292568,4.40683e-17,33.5661,14.3384
469.7,590.0,470.353,394.738,157.033,195.262,352.296,195.262,19.2089,39.1432,46.7848,3.7606,0.00300042,1.33688e-16,33.7851,14.3477
469.6,512.0,470.253,317.658,158.789,194.342,353.131,194.342,19.4575,39.6763,47.4489,3.84493,0.00307818,4.00059e-16,34.002,14.3568
469.5,553.0,470.1528,359.578,160.576,193.422,353.998,193.422,19.7109,40.2203,48.1272,3.93216,0.00315913,1.18092e-15,34.2167,14.3658
469.4,541.0,470.0528,348.497,162.394,192.503,354.897,192.503,19.9693,40.7756,48.8201,4.02242,0.00324349,3.43858e-15,34.4291,14.3746
469.3,412.0,469.953,220.416,164.245,191.584,355.829,191.584,20.2328,41.3425,49.5281,4.11586,0.00333149,9.87649e-15,34.6391,14.3833
469.2,563.0,469.853,372.334,166.129,190.666,356.795,190.666,20.5016,41.9213,50.2516,4.21261,0.00342344,2.79828e-14,34.8465,14.3919
469.1,552.0,469.753,362.251,168.047,189.749,357.796,189.749,20.7757,42.5123,50.991,4.31286,0.00351969,7.82064e-14,35.0513,14.4004
469.0,637.0,469.6528,448.168,170,188.832,358.832,188.832,21.0554,43.1158,51.7469,4.41676,0.00362072,2.15605e-13,35.2532,14.4087
468.9,470.0,469.5528,282.084,171.99,187.916,359.906,187.916,21.3407,43.7323,52.5197,4.52449,0.00372716,5.86324e-13,35.4523,14.4169
468.8,501.0,469.453,314,174.017,187,361.017,187,21.6319,44.3622,53.3099,4.63626,0.00383989,1.57282e-12,35.6484,14.4249
468.7,645.0,469.353,458.915,176.083,186.085,362.168,186.085,21.9291,45.0057,54.118,4.75225,0.00396019,4.16185e-12,35.8413,14.4328
468.6,515.0,469.253,329.83,178.189,185.17,363.359,185.17,22.2324,45.6633,54.9447,4.8727,0.00408992,1.08631e-11,36.031,14.4406
468.5,438.0,469.1528,253.744,180.335,184.256,364.592,184.256,22.5421,46.3354,55.7904,4.99783,0.00423186,2.79696e-11,36.2172,14.4482
468.4,546.0,469.0528,362.657,182.524,183.343,365.867,183.343,22.8583,47.0225,56.6557,5.12788,0.0043902,7.10361e-11,36.4,14.4557
468.3,653.0,468.953,470.57,184.757,182.43,367.187,182.43,23.1812,47.7249,57.5414,5.26314,0.00457128,1.77965e-10,36.5791,14.4631
468.2,498.0,468.853,316.482,187.035,181.518,368.553,181.518,23.511,48.4432,58.4479,5.40386,0.00478467,4.39795e-10,36.7545,14.4703
468.1,207.0,468.753,26.394,189.36,180.606,369.966,180.606,23.8478,49.1778,59.376,5.55036,0.00504484,1.07208e-09,36.9261,14.4774
468.0,356.0,468.6528,176.305,191.734,179.695,371.429,179.695,24.192,49.9292,60.3264,5.70296,0.00537361,2.57788e-09,37.0936,14.4843
467.9,384.0,468.5528,205.216,194.157,178.784,372.941,178.784,24.5436,50.698,61.2997,5.862,0.00580367,6.11444e-09,37.257,14.4911
467.8,365.0,468.453,187.126,196.632,177.874,374.507,177.874,24.903,51.4846,62.2967,6.02786,0.00638376,1.43057e-08,37.4162,14.4978
467.7,261.0,468.353,84.0352,199.162,176.965,376.126,176.965,25.2703,52.2897,63.3183,6.20092,0.00718612,3.30155e-08,37.571,14.5043
467.6,383.0,468.253,206.944,201.747,176.056,377.803,176.056,25.6458,53.1138,64.3651,6.38162,0.00831713,7.51592e-08,37.7213,14.5107
467.5,456.0,468.1528,280.852,204.39,175.148,379.537,175.148,26.0297,53.9575,65.4381,6.57042,0.00993235,1.68772e-07,37.8671,14.5169
467.4,280.0,468.0528,105.76,207.093,174.24,381.333,174.24,26.4222,54.8215,66.5381,6.7678,0.0122576,3.73826e-07,38.0081,14.523
467.3,179.0,467.953,5.66717,209.859,173.333,383.192,173.333,26.8238,55.7063,67.6661,6.97431,0.0156186,8.16749e-07,38.1443,14.529
467.2,239.0,467.853,66.5737,212.692,172.426,385.118,172.426,27.2345,56.6127,68.8229,7.19051,0.0204811,1.76017e-06,38.2755,14.5348
467.1,351.0,467.753,179.48,215.593,171.52,387.113,171.52,27.6548,57.5415,70.0096,7.41703,0.0275067,3.74169e-06,38.4017,14.5405
467.0,236.0,467.6528,65.3852,218.566,170.615,389.181,170.615,28.0848,58.4932,71.2272,7.65453,0.0376278,7.84554e-06,38.5228,14.5461
466.9,246.0,467.5528,76.29,221.616,169.71,391.326,169.71,28.5249,59.4687,72.4768,7.90375,0.052148,1.62262e-05,38.6385,14.5515
466.8,114.0,467.453,-54.8057,224.748,168.806,393.553,168.806,28.9755,60.4688,73.7596,8.16548,0.0728768,3.31014e-05,38.7488,14.5567
466.7,147.0,467.353,-20.9019,227.966,167.902,395.868,167.902,29.4368,61.4943,75.0766,8.44057,0.102305,6.66053e-05,38.8537,14.5619
466.6,213.0,467.253,46.0012,231.278,166.999,398.277,166.999,29.9092,62.5461,76.4292,8.72995,0.143834,0.00013219,38.9529,14.5668
466.5,195.0,467.1528,28.9038,234.692,166.096,400.788,166.096,30.393,63.6251,77.8187,9.03464,0.202073,0.000258768,39.0464,14.5717
466.4,118.0,467.0528,-47.1942,238.217,165.194,403.411,165.194,30.8887,64.7322,79.2463,9.35575,0.283218,0.00049962,39.1341,14.5764
466.3,52.0,466.953,-112.293,241.866,164.293,406.159,164.293,31.3966,65.8685,80.7134,9.69448,0.395526,0.000951442,39.2159,14.5809
466.2,211.0,466.853,47.6082,245.655,163.392,409.046,163.392,31.9171,67.0348,82.2217,10.0522,0.549915,0.00178702,39.2917,14.5853
466.1,157.0,466.753,-5.49151,249.601,162.492,412.092,162.492,32.4507,68.2324,83.7725,10.4303,0.760698,0.00331037,39.3614,14.5896
466.0,203.0,466.6528,41.4082,253.729,161.592,415.321,161.592,32.9977,69.4624,85.3675,10.8304,1.04648,0.00604806,39.4248,14.5937
465.9,70.0,466.5528,-90.6926,258.069,160.693,418.762,160.693,33.5586,70.7258,87.0085,11.2542,1.43125,0.0108978,39.482,14.5977
465.8,171.0,466.453,11.206,262.658,159.794,422.452,159.794,34.134,72.024,88.6971,11.7038,1.94564,0.0193659,39.5328,14.6016
465.7,256.0,466.353,97.1041,267.544,158.896,426.44,158.896,34.7243,73.3583,90.4353,12.1812,2.62846,0.0339393,39.5772,14.6053
465.6,147.0,466.253,-10.9985,272.785,157.998,430.783,157.998,35.33,74.7299,92.225,12.6888,3.52843,0.0586576,39.615,14.6088
465.5,222.0,466.1528,64.8985,278.454,157.102,435.556,157.102,35.9517,76.1403,94.0683,13.2293,4.70612,0.0999753,39.6462,14.6123
465.4,0.0,466.0528,-156.205,284.644,156.205,440.849,156.205,36.5899,77.5909,95.9673,13.8055,6.23619,0.168034,39.6708,14.6155
465.3,237.908,465.953,82.5986,291.469,155.309,446.778,155.309,37.2453,79.0833,97.9242,14.4208,8.20973,0.2785,39.6885,14.6187
465.2,96.1832,465.853,-58.231,299.071,154.414,453.485,154.414,37.9184,80.6192,99.9415,15.0788,10.7369,0.455162,39.6995,14.6216
465.1,144.1,465.753,-9.41918,307.626,153.52,461.146,153.52,38.6098,82.2001,102.022,15.7836,13.9493,0.733509,39.7036,14.6245
465.0,266.668,465.6528,114.043,317.352,152.625,469.977,152.625,39.3204,83.828,104.167,16.5398,18.0031,1.16555,39.7007,14.6272
464.9,100.068,465.5528,-51.664,328.517,151.732,480.249,151.732,40.0507,85.5046,106.381,17.3526,23.081,1.82612,39.6908,14.6297
464.8,148.015,465.453,-2.8241,341.449,150.839,492.288,150.839,40.8016,87.2319,108.666,18.2279,29.3948,2.82087,39.674,14.6321
464.7,334.858,465.353,184.911,356.551,149.947,506.498,149.947,41.5737,89.0121,111.025,19.1724,37.1868,4.29617,39.65,14.6344
464.6,410.704,465.253,261.649,374.308,149.055,523.363,149.055,42.3679,90.8471,113.462,20.1936,46.7315,6.45069,39.6189,14.6365
464.5,532.303,465.1528,384.139,395.308,148.164,543.471,148.164,43.1851,92.7395,115.98,21.3004,58.3349,9.54864,39.5806,14.6385
464.4,204.114,465.0528,56.841,420.246,147.273,567.519,147.273,44.0261,94.6914,118.582,22.5027,72.3345,13.9339,39.5351,14.6403
464.3,227.762,464.953,81.3795,449.947,146.383,596.329,146.383,44.8919,96.7055,121.273,23.812,89.0961,20.0438,39.4824,14.642
464.2,645.094,464.853,499.601,485.363,145.493,630.856,145.493,45.7834,98.7845,124.056,25.2418,109.01,28.4215,39.4225,14.6436
464.1,686.175,464.753,541.571,527.587,144.604,672.191,144.604,46.7017,100.931,126.935,26.8077,132.486,39.7245,39.3553,14.645
464.0,709.502,464.6528,565.787,577.837,143.716,721.553,143.716,47.6479,103.148,129.916,28.528,159.943,54.7261,39.2808,14.6462
463.9,749.069,464.5528,606.242,637.447,142.828,780.275,142.828,48.6231,105.439,133.003,30.4242,191.803,74.3084,39.199,14.6473
463.8,758.825,464.453,616.884,707.833,141.941,849.774,141.941,49.6285,107.807,136.201,32.522,228.474,99.4421,39.11,14.6483
463.7,1025.64,464.353,884.582,790.443,141.054,931.497,141.054,50.6654,110.255,139.515,34.852,270.341,131.151,39.0136,14.6491
463.6,1069.63,464.253,929.466,886.692,140.168,1026.86,140.168,51.735,112.788,142.951,37.4513,317.745,170.462,38.91,14.6498
463.5,1221.38,464.1528,1082.1,997.877,139.282,1137.16,139.282,52.8389,115.408,146.516,40.3647,370.969,218.331,38.7991,14.6503
463.4,1373.28,464.0528,1234.88,1125.07,138.397,1263.47,138.397,53.9783,118.12,150.215,43.6477,430.218,275.561,38.6809,14.6507
463.3,1370.75,463.953,1233.24,1269.02,137.512,1406.53,137.512,55.155,120.929,154.055,47.3691,495.6,342.702,38.5556,14.651
463.2,1484.65,463.853,1348.03,1430,136.629,1566.62,136.629,56.3705,123.839,158.044,51.6162,567.107,419.945,38.423,14.6511
463.1,1506.07,463.753,1370.32,1607.73,135.745,1743.47,135.745,57.6266,126.855,162.189,56.5007,644.599,507.023,38.2832,14.651
463.0,1859.92,463.6528,1725.05,1801.27,134.862,1936.14,134.862,58.9251,129.982,166.5,62.1691,727.79,603.121,38.1363,14.6508
462.9,2183.35,463.5528,2049.37,2008.97,133.98,2142.95,133.98,60.2678,133.226,170.983,68.8175,816.233,706.811,37.9823,14.6505
462.8,2333.59,463.453,2200.49,2228.43,133.098,2361.53,133.098,61.6569,136.592,175.65,76.7141,909.313,816.031,37.8212,14.65
462.7,2443.82,463.353,2311.61,2456.57,132.217,2588.79,132.217,63.0945,140.086,180.509,86.2336,1006.24,928.105,37.6532,14.6494
462.6,2888.18,463.253,2756.84,2689.8,131.337,2821.14,131.337,64.5828,143.715,185.572,97.9101,1106.08,1039.82,37.4782,14.6486
462.5,2947.45,463.1528,2816.99,2924.16,130.457,3054.61,130.457,66.1244,147.487,190.851,112.513,1207.69,1147.54,37.2963,14.6477
462.4,3333.42,463.053,3203.85,3155.67,129.577,3285.25,129.577,67.7216,151.407,196.356,131.155,1309.85,1247.43,37.1076,14.6466
462.3,3605.91,462.953,3477.21,3380.73,128.698,3509.43,128.698,69.3774,155.485,202.103,155.436,1411.16,1335.62,36.9122,14.6454
462.2,3508.06,462.853,3380.24,3596.52,127.82,3724.34,127.82,71.0945,159.729,208.104,187.609,1510.15,1408.48,36.7102,14.6441
462.1,3920.42,462.753,3793.47,3801.47,126.942,3928.42,126.942,72.8759,164.147,214.376,230.763,1605.3,1462.87,36.5015,14.6426
462.0,4072.93,462.6528,3946.86,3995.68,126.065,4121.75,126.065,74.7251,168.749,220.933,288.956,1695.06,1496.34,36.2864,14.6409
461.9,4300.89,462.553,4175.7,4181.14,125.188,4306.32,125.188,76.6453,173.545,227.795,367.231,1777.88,1507.33,36.0648,14.6391
461.8,4506.5,462.453,4382.19,4361.65,124.312,4485.97,124.312,78.6404,178.546,234.98,471.406,1852.3,1495.31,35.837,14.6372
461.7,4429.61,462.353,4306.18,4542.46,123.437,4665.9,123.437,80.7142,183.764,242.509,607.528,1916.96,1460.75,35.6029,14.6351
461.6,4843,462.253,4720.44,4729.21,122.562,4851.77,122.562,82.8708,189.21,250.403,780.921,1970.62,1405.19,35.3628,14.6329
461.5,5095.94,462.1528,4974.25,4926.58,121.687,5048.26,121.687,85.1149,194.898,258.686,994.824,2012.27,1331.04,35.1166,14.6306
461.4,5322.71,462.053,5201.89,5136.49,120.814,5257.3,120.814,87.4512,200.843,267.385,1248.79,2041.07,1241.45,34.8646,14.628
461.3,5441.79,461.953,5321.85,5356.43,119.94,5476.37,119.94,89.8846,207.058,276.528,1537.15,2056.47,1140.1,34.6069,14.6254
461.2,5577.85,461.853,5458.79,5578.13,119.067,5697.2,119.067,92.4208,213.561,286.145,1848,2058.15,1030.89,34.3435,14.6226
461.1,5871.56,461.753,5753.36,5787.35,118.195,5905.55,118.195,95.0656,220.368,296.268,2163.11,2046.08,917.761,34.0746,14.6197
461.0,6109.28,461.6528,5991.96,5964.9,117.324,6082.23,117.324,97.8252,227.498,306.935,2459.31,2020.51,804.416,33.8003,14.6166
460.9,6256.48,461.553,6140.03,6089.1,116.453,6205.55,116.453,100.706,234.971,318.184,2711.02,1981.93,694.153,33.5208,14.6133
460.8,6224.12,461.453,6108.54,6139.28,115.582,6254.86,115.582,103.716,242.808,330.058,2894.03,1931.11,589.714,33.2361,14.61
460.7,6032.9,461.353,5918.19,6099.69,114.712,6214.4,114.712,106.863,251.033,342.605,2989.4,1869.03,493.206,32.9466,14.6065
460.6,5931.57,461.253,5817.73,5962.73,113.843,6076.58,113.843,110.154,259.669,355.874,2986.84,1796.87,406.075,32.6522,14.6028
460.5,5714.02,461.1528,5601.05,5730.93,112.974,5843.9,112.974,113.599,268.744,369.923,2886.62,1715.96,329.128,32.3531,14.599
460.4,5739.74,461.053,5627.63,5416.84,112.106,5528.94,112.106,117.208,278.286,384.812,2699.53,1627.76,262.599,32.0495,14.595
460.3,5188.45,460.953,5077.21,5041.14,111.238,5152.38,111.238,120.991,288.326,400.611,2444.85,1533.78,206.244,31.7415,14.591
460.2,4763.43,460.853,4653.06,4629.28,110.371,4739.65,110.371,124.96,298.898,417.392,2146.98,1435.58,159.45,31.4293,14.5867
460.1,4216.71,460.753,4107.21,4207.58,109.504,4317.09,109.504,129.126,310.036,435.24,1831.45,1334.7,121.341,31.1131,14.5823
460.0,3845.48,460.6528,3736.85,3799.66,108.638,3908.3,108.638,133.503,321.782,454.243,1521.25,1232.62,90.8924,30.7929,14.5778
459.9,3599.9,460.553,3492.13,3423.9,107.772,3531.67,107.772,138.105,334.176,474.505,1234.3,1130.75,67.0151,30.4691,14.5732
459.8,3129.59,460.453,3022.68,3092.27,106.907,3199.17,106.907,142.949,347.265,496.136,982.198,1030.38,48.6336,30.1417,14.5684
459.7,2654.66,460.353,2548.62,2810.48,106.043,2916.52,106.043,148.051,361.099,519.26,770.317,932.642,34.7384,29.8108,14.5634
459.6,2468.22,460.253,2363.04,2579.06,105.179,2684.24,105.179,153.429,375.732,544.017,598.88,838.544,24.4224,29.4768,14.5583
459.5,2460.03,460.1528,2355.71,2394.89,104.316,2499.2,104.316,159.105,391.223,570.56,464.502,748.907,16.899,29.1397,14.5531
459.4,2381.51,460.053,2278.05,2252.84,103.453,2356.29,103.453,165.1,407.638,599.064,361.791,664.387,11.5086,28.7997,14.5477
459.3,2296.36,459.953,2193.77,2147.08,102.591,2249.67,102.591,171.438,425.047,629.721,284.687,585.471,7.7138,28.4569,14.5422
459.2,2173.42,459.853,2071.69,2072.04,101.729,2173.77,101.729,178.146,443.528,662.751,227.396,512.485,5.08849,28.1117,14.5366
459.1,2194.09,459.753,2093.23,2022.94,100.868,2123.81,100.868,185.254,463.167,698.397,184.92,445.604,3.30354,27.764,14.5308
459.0,2247.04,459.6528,2147.04,1995.95,100.008,2095.96,100.008,192.793,484.057,736.937,153.249,384.864,2.11074,27.4142,14.5248
458.9,2099.64,459.553,2000.49,1988.22,99.1477,2087.37,99.1477,200.799,506.304,778.683,129.339,330.186,1.32723,27.0624,14.5187
458.8,2124.76,459.453,2026.47,1997.72,98.2883,2096.01,98.2883,209.311,530.023,823.991,110.97,281.385,0.821318,26.7087,14.5125
458.7,2348.83,459.353,2251.41,2023.1,97.4294,2120.53,97.4294,218.372,555.341,873.261,96.5722,238.197,0.500176,26.3533,14.5062
458.6,2112.86,459.253,2016.29,2063.52,96.5711,2160.09,96.5711,228.03,582.401,926.952,85.0526,200.292,0.299762,25.9965,14.4997
458.5,2318.78,459.1528,2223.07,2118.54,95.7133,2214.26,95.7133,238.339,611.363,985.582,75.6557,167.295,0.176794,25.6383,14.493
458.4,2498.17,459.053,2403.31,2188.03,94.8561,2282.89,94.8561,249.357,642.404,1049.74,67.8574,138.802,0.10261,25.279,14.4863
458.3,2301.48,458.953,2207.49,2272.13,93.9994,2366.13,93.9994,261.151,675.725,1120.11,61.2894,114.394,0.0586057,24.9187,14.4793
458.2,2463.67,458.853,2370.53,2371.19,93.1433,2464.34,93.1433,273.794,711.551,1197.45,55.688,93.649,0.0329392,24.5577,14.4723
458.1,2564.87,458.753,2472.58,2485.83,92.2877,2578.11,92.2877,287.37,750.138,1282.62,50.8603,76.1551,0.0182182,24.196,14.4651
458.0,2794.32,458.6528,2702.89,2616.85,91.4327,2708.28,91.4327,301.971,791.776,1376.62,46.6622,61.5163,0.0099154,23.8338,14.4577
457.9,2706.32,458.553,2615.74,2765.32,90.5782,2855.89,90.5782,317.703,836.795,1480.55,42.9833,49.3604,0.00531039,23.4714,14.4503
457.8,2836.47,458.453,2746.75,2932.52,89.7243,3022.25,89.7243,334.684,885.571,1595.63,39.7377,39.3429,0.00279865,23.1088,14.4427
457.7,2899.37,458.353,2810.49,3120.02,88.8709,3208.89,88.8709,353.047,938.539,1723.25,36.8574,31.1497,0.00145135,22.7463,14.4349
457.6,3318.1,458.253,3230.08,3329.6,88.0181,3417.62,88.0181,372.947,996.198,1864.86,34.2878,24.4988,0.000740623,22.3841,14.427
457.5,3396.73,458.1528,3309.56,3563.3,87.1659,3650.47,87.1659,394.555,1059.12,2022.06,31.9843,19.1401,0.000371892,22.0222,14.419
457.4,3551.25,458.053,3464.93,3823.35,86.3141,3909.67,86.3141,418.072,1127.99,2196.45,29.9106,14.8543,0.00018375,21.6608,14.4108
457.3,4263.07,457.953,4177.61,4112.13,85.463,4197.59,85.463,443.725,1203.58,2389.63,28.0362,11.452,8.93364e-05,21.3001,14.4025
457.2,4452.34,457.853,4367.73,4432.04,84.6123,4516.65,84.6123,471.777,1286.81,2603.01,26.3359,8.77064,4.2738e-05,20.9403,14.3941
457.1,4892,457.753,4808.24,4785.38,83.7623,4869.15,83.7623,502.531,1378.76,2837.66,24.7883,6.67296,2.01179e-05,20.5815,14.3855
457.0,5464.53,457.6528,5381.62,5174.1,82.9127,5257.01,82.9127,536.34,1480.71,3094.04,23.3754,5.04377,9.31816e-06,20.2239,14.3768
456.9,5824.62,457.553,5742.56,5599.48,82.0638,5681.54,82.0638,573.614,1594.16,3371.59,22.0816,3.78757,4.24673e-06,19.8675,14.368
456.8,6139.29,457.453,6058.07,6061.75,81.2153,6142.96,81.2153,614.832,1720.93,3668.39,20.8937,2.82592,1.90438e-06,19.5126,14.359
456.7,6799.67,457.353,6719.31,6559.66,80.3675,6640.03,80.3675,660.558,1863.17,3980.53,19.8004,2.09503,8.40278e-07,19.1593,14.3499
456.6,7420.95,457.253,7341.43,7090.01,79.5201,7169.53,79.5201,711.458,2023.45,4301.62,18.7916,1.54347,3.64805e-07,18.8077,14.3406
456.5,7626.39,457.1528,7547.71,7647.3,78.6733,7725.97,78.6733,768.321,2204.85,4622.35,17.8588,1.13018,1.55835e-07,18.458,14.3312
456.4,8359.4,457.053,8281.57,8223.57,77.8271,8301.4,77.8271,832.087,2411.08,4930.15,16.9945,0.822693,6.54989e-08,18.1103,14.3217
456.3,8843.06,456.953,8766.08,8808.68,76.9814,8885.66,76.9814,903.883,2646.54,5209.39,16.1919,0.595513,2.70871e-08,17.7647,14.3121
456.2,9414.75,456.853,9338.61,9391.14,76.1363,9467.28,76.1363,985.065,2916.44,5442.04,15.4454,0.428832,1.10218e-08,17.4214,14.3023
456.1,9820.17,456.753,9744.87,9959.52,75.2917,10034.8,75.2917,1077.28,3226.84,5608.97,14.7497,0.307379,4.41263e-09,17.0804,14.2923
456.0,10254.8,456.6528,10180.3,10504.5,74.4476,10578.9,74.4476,1182.51,3584.58,5692.02,14.1003,0.219483,1.73819e-09,16.7419,14.2823
455.9,11077.2,456.553,11003.6,11020.9,73.6041,11094.5,73.6041,1303.23,3996.99,5676.34,13.4932,0.156296,6.73675e-10,16.4061,14.2721
455.8,11584.7,456.453,11511.9,11509.8,72.7611,11582.6,72.7611,1442.42,4471.12,5552.9,12.9247,0.111168,2.56894e-10,16.0729,14.2618
455.7,12123.2,456.353,12051.3,11979,71.9187,12050.9,71.9187,1603.8,5012.21,5320.52,12.3915,0.079142,9.63843e-11,15.7426,14.2513
455.6,12820.4,456.253,12749.3,12441.2,71.0768,12512.3,71.0768,1791.99,5620.8,4986.83,11.8909,0.0565509,3.55799e-11,15.4152,14.2408
455.5,12943.7,456.1528,12873.5,12909.7,70.2355,12979.9,70.2355,2012.72,6288.25,4567.95,11.4201,0.0407054,1.29226e-11,15.0908,14.23
455.4,13517.7,456.053,13448.3,13390.3,69.3947,13459.7,69.3947,2273.11,6990.35,4086.8,10.9769,0.029648,4.61782e-12,14.7695,14.2192
455.3,13948.6,455.953,13880,13872.3,68.5545,13940.9,68.5545,2582.02,7680.79,3570.26,10.559,0.0219654,1.62355e-12,14.4515,14.2082
455.2,14157.9,455.853,14090.1,14322.7,67.7148,14390.4,67.7148,2950.32,8288.08,3045.83,10.1647,0.0166451,5.6161e-13,14.1367,14.1971
455.1,14675.9,455.753,14609,14689.5,66.8757,14756.4,66.8757,3391.18,8722.01,2538.48,9.79211,0.0129671,1.91136e-13,13.8254,14.1859
455.0,14903.8,455.6528,14837.8,14919.3,66.0371,14985.4,66.0371,3919.94,8894.01,2068.25,9.4397,0.0104237,6.40008e-14,13.5175,14.1745
454.9,15115.4,455.553,15050.2,14985.7,65.199,15050.9,65.199,4553.07,8747.24,1648.89,9.10602,0.00865931,2.10846e-14,13.2131,14.163
454.8,15097.7,455.453,15033.4,14910,64.3615,14974.4,64.3615,5304.35,8282.12,1287.71,8.78976,0.00742678,6.83404e-15,12.9123,14.1514
454.7,14843,455.353,14779.5,14755.1,63.5245,14818.6,63.5245,6173.36,7560.17,986.3,8.48973,0.00655563,2.17933e-15,12.6152,14.1396
454.6,14583.3,455.253,14520.6,14575.3,62.6881,14637.9,62.6881,7116.39,6682.37,741.836,8.20482,0.00592907,6.83752e-16,12.3218,14.1278
454.5,14481.2,455.1528,14419.4,14330.1,61.8522,14392,61.8522,7992.27,5755.15,548.598,7.93404,0.00546766,2.11059e-16,12.0323,14.1158
454.4,13617.5,455.053,13556.5,13807,61.0169,13868,61.0169,8511.01,4863.14,399.348,7.67646,0.0051177,6.40971e-17,11.7465,14.1036
454.3,12748.1,454.953,12687.9,12663.3,60.1821,12723.5,60.1821,8285.7,4058.16,286.453,7.43123,0.00484315,1.91513e-17,11.4647,14.0914
454.2,10756.8,454.853,10697.5,10681.3,59.3478,10740.7,59.3478,7083.9,3362.3,202.649,7.19757,0.00461991,5.62971e-18,11.1868,14.079
454.1,8263.44,454.753,8204.93,8081.03,58.5141,8139.54,58.5141,5130.4,2777.18,141.494,6.97477,0.00443199,1.62816e-18,10.9129,14.0665
454.0,5420.67,454.6528,5362.99,5488.75,57.6809,5546.43,57.6809,3066.43,2293.3,97.5616,6.76215,0.00426878,4.63267e-19,10.6431,14.0538
453.9,3474.63,454.553,3417.78,3484.96,56.8483,3541.81,56.8483,1490.81,1896.71,66.457,6.55911,0.00412329,1.29685e-19,10.3772,14.0411
453.8,2343.84,454.453,2287.82,2234.63,56.0162,2290.64,56.0162,586.511,1572.87,44.7343,6.36508,0.00399088,3.57163e-20,10.1155,14.0282
453.7,1576.8,454.353,1521.62,1555.09,55.1846,1610.27,55.1846,186.75,1308.52,29.7608,6.17952,0.00386849,9.67753e-21,9.85793,14.0152
453.6,1138.16,454.253,1083.81,1189.76,54.3536,1244.11,54.3536,48.2245,1092.35,19.5695,6.00196,0.00375404,2.57977e-21,9.60448,14.0021
453.5,878.861,454.1528,825.338,967.048,53.5232,1020.57,53.5232,10.1194,915.03,12.7187,5.83193,0.00364616,6.76576e-22,9.35519,13.9888
453.4,717.956,454.053,665.263,807.689,52.6932,860.382,52.6932,1.72756,769.034,8.16975,5.66902,0.00354388,1.7457e-22,9.11007,13.9754
453.3,814.806,453.953,762.943,682.111,51.8639,733.975,51.8639,0.240027,648.338,5.18604,5.51283,0.00344651,4.43136e-23,8.86916,13.9619
453.2,623.295,453.853,572.26,579.371,51.035,630.406,51.035,0.027134,548.144,3.25291,5.36299,0.00335355,1.10668e-23,8.63244,13.9483
453.1,638.11,453.753,587.903,494.209,50.2067,544.416,50.2067,0.00249403,464.634,2.01586,5.21918,0.00326461,2.71905e-24,8.39994,13.9345
453.0,525.552,453.6528,476.173,423.17,49.379,472.549,49.379,0.000186224,394.759,1.23406,5.08106,0.00317939,6.57247e-25,8.17164,13.9207
452.9,597.839,453.553,549.288,363.634,48.5517,412.186,48.5517,1.12849e-05,336.082,0.746175,4.94834,0.00309763,1.56297e-25,7.94756,13.9067
452.8,350.459,453.453,302.734,313.533,47.725,361.258,47.725,5.54445e-07,286.643,0.445561,4.82074,0.00301911,3.65668e-26,7.72768,13.8926
452.7,299.941,453.353,253.043,271.213,46.8989,318.112,46.8989,2.20653e-08,244.859,0.262709,4.698,0.00294365,8.41652e-27,7.51201,13.8784
452.6,334.363,453.253,288.289,235.346,46.0733,281.419,46.0733,7.1068e-10,209.446,0.152927,4.57988,0.00287107,1.90585e-27,7.30053,13.864
452.5,274.687,453.1528,229.439,204.857,45.2482,250.105,45.2482,1.84709e-11,179.357,0.0878775,4.46615,0.00280122,4.24574e-28,7.09323,13.8496
452.4,277.796,453.053,233.372,178.87,44.4237,223.293,44.4237,3.83517e-13,153.735,0.0498426,4.35659,0.00273395,9.30522e-29,6.8901,13.835
452.3,92.2082,452.953,48.6085,156.666,43.5997,200.266,43.5997,0.0,131.873,0.0278997,4.251,0.00266914,2.00635e-29,6.69111,13.8203
452.2,208.355,452.853,165.579,137.656,42.7762,180.432,42.7762,0.0,113.187,0.0154109,4.14919,0.00260667,4.25594e-30,6.49625,13.8055
452.1,158.757,452.753,116.803,121.349,41.9533,163.303,41.9533,0.0,97.1914,0.00839913,4.05098,0.00254641,8.88157e-31,6.30549,13.7905
452.0,127.851,452.6528,86.7197,107.338,41.1309,148.469,41.1309,0.0,83.4806,0.00451625,3.95621,0.00248827,1.82343e-31,6.11881,13.7755
451.9,265.351,452.553,225.042,95.2817,40.3091,135.591,40.3091,0.0,71.7156,0.00239561,3.86471,0.00243213,3.68294e-32,5.93618,13.7603
451.8,332.634,452.453,293.146,84.8936,39.4878,124.381,39.4878,0.0,61.6111,0.00125346,3.77634,0.00237792,7.31819e-33,5.75758,13.745
451.7,237.811,452.353,199.144,75.9327,38.667,114.6,38.667,0.0,52.9262,0.00064688,3.69095,0.00232553,1.43059e-33,5.58296,13.7296
451.6,220.561,452.253,182.714,68.1948,37.8468,106.042,37.8468,0.0,45.4573,0.000329245,3.60842,0.0022749,2.75126e-34,5.4123,13.7141
451.5,122.872,452.1528,85.8444,61.5066,37.0271,98.5337,37.0271,0.0,39.0315,0.00016526,3.52861,0.00222593,5.20535e-35,5.24555,13.6985
451.4,67.5985,452.053,31.3906,55.7208,36.208,91.9287,36.208,0.0,33.5016,8.17962e-05,3.45141,0.00217855,9.68881e-36,5.08269,13.6828
451.3,57.0744,451.953,21.6851,50.7115,35.3893,86.1008,35.3893,0.0,28.742,3.992e-05,3.3767,0.0021327,1.77415e-36,4.92367,13.6669
451.2,145.849,451.853,111.278,46.3713,34.5713,80.9425,34.5713,0.0,24.6454,1.92093e-05,3.30439,0.00208831,3.19605e-37,4.76845,13.651
451.1,178.085,451.753,144.332,42.608,33.7537,76.3617,33.7537,0.0,21.1197,9.11313e-06,3.23436,0.00204531,5.66415e-38,4.61699,13.6349
451.0,113.197,451.6528,80.2604,39.3425,32.9367,72.2792,32.9367,0.0,18.086,4.26223e-06,3.16652,0.00200365,9.87544e-39,4.46924,13.6187
450.9,135.145,451.553,103.025,36.5069,32.1202,68.6271,32.1202,0.0,15.4766,1.96514e-06,3.10078,0.00196327,1.69386e-39,4.32515,13.6024
450.8,67.9201,451.453,36.6158,34.0425,31.3043,65.3468,31.3043,0.0,13.2329,8.9314e-07,3.03706,0.00192412,2.85822e-40,4.18469,13.586
450.7,121.644,451.353,91.1548,31.8991,30.4889,62.388,30.4889,0.0,11.3046,4.00121e-07,2.97528,0.00188615,4.74475e-41,4.0478,13.5695
450.6,206.898,451.253,177.224,30.033,29.674,59.707,29.674,0.0,9.64848,1.76681e-07,2.91535,0.00184931,7.74868e-42,3.91443,13.5529
450.5,206.475,451.1528,177.616,28.4066,28.8597,57.2663,28.8597,0.0,8.22695,7.68944e-08,2.8572,0.00181355,1.24491e-42,3.78453,13.5361
450.4,55.4753,451.053,27.4294,26.9876,28.0459,55.0335,28.0459,0.0,7.00769,3.2983e-08,2.80077,0.00177884,1.96765e-43,3.65806,13.5193
450.3,82.0,450.953,54.7674,25.7478,27.2326,52.9804,27.2326,0.0,5.96276,1.39431e-08,2.74598,0.00174513,3.05951e-44,3.53495,13.5024
450.2,0.0,450.853,-26.4199,24.663,26.4199,51.0828,26.4199,0.0,5.06802,5.80879e-09,2.69278,0.00171238,4.68006e-45,3.41515,13.4853
450.1,94.0,450.753,68.3923,23.7121,25.6077,49.3198,25.6077,0.0,4.30258,2.3848e-09,2.6411,0.00168056,7.04281e-46,3.29862,13.4681
450.0,4.0,450.6528,-20.796,22.8771,24.796,47.6731,24.796,0.0,3.6484,9.64837e-10,2.59088,0.00164962,1.04264e-46,3.1853,13.4509