File: XPS/LG4X-result/MX-UT-0.5-1-C1s.csv
#No of rows lightened (2D detector)1(if not using 2D detector, value is 1 and can be ignored!)
raw_x,raw_y,corrected x,data-bg,sum_components,bg,sum_fit,C=C,pi-pi*,pi-pi*2,C-C,C-O,C=O,TiC
294.7,745.0,295.353,12.0,-697.359,733.0,35.6409,18.3976,7.88582,0.0544584,6.59665,1.97453,0.656539,0.0753631
294.6,733.0,295.253,0.0,-696.057,733.0,36.9433,18.7414,8.36547,0.334748,6.72988,2.0197,0.675672,0.0765061
294.5,747.0,295.1528,14.0216,-693.725,732.978,39.2535,19.0949,8.89742,1.55429,6.86721,2.06642,0.695652,0.0776752
294.4,772.0,295.053,39.1032,-688.577,732.897,44.3193,19.4585,9.49034,5.45144,7.00882,2.11478,0.716529,0.0788714
294.3,787.0,294.953,54.2467,-678.185,732.753,54.5683,19.8326,10.1547,14.4428,7.15489,2.16486,0.738357,0.0800954
294.2,801.0,294.853,68.4353,-662.175,732.565,70.3893,20.2176,10.9029,28.9039,7.30561,2.21673,0.761194,0.0813482
294.1,845.0,294.753,112.714,-645.629,732.286,86.6576,20.6139,11.7502,43.6941,7.46117,2.27048,0.785103,0.0826305
294.0,795.0,294.6528,62.9839,-637.543,732.016,94.4731,21.022,12.7146,49.8944,7.6218,2.3262,0.810154,0.0839435
293.9,828.0,294.553,96.2287,-642.381,731.771,89.3905,21.4423,13.8176,43.0371,7.78772,2.38399,0.836418,0.085288
293.8,824.0,294.453,92.5189,-655.126,731.481,76.3552,21.8754,15.0848,28.0413,7.95915,2.44395,0.863975,0.0866651
293.7,783.0,294.353,51.7407,-666.967,731.259,64.2926,22.3217,16.5462,13.8011,8.13636,2.5062,0.892912,0.0880758
293.6,792.0,294.253,60.9139,-673.033,731.086,58.0531,22.7818,18.2371,5.13091,8.31961,2.57085,0.923322,0.0895212
293.5,782.0,294.1528,51.086,-673.825,730.914,57.089,23.2563,20.1983,1.44091,8.50917,2.63802,0.955305,0.0910025
293.4,783.0,294.053,52.2449,-671.732,730.755,59.0226,23.7458,22.4765,0.305663,8.70535,2.70785,0.988972,0.0925209
293.3,805.0,293.953,74.4397,-668.328,730.56,62.2322,24.2508,25.1249,0.048979,8.90845,2.78047,1.02444,0.0940776
293.2,821.0,293.853,90.6935,-664.193,730.306,66.1133,24.7722,28.2028,0.00592844,9.11881,2.85605,1.06185,0.095674
293.1,803.0,293.753,72.9451,-659.498,730.055,70.5568,25.3106,31.7756,0.000542043,9.33679,2.93474,1.10133,0.0973114
293.0,804.0,293.6528,74.1713,-654.226,729.829,75.6025,25.8667,35.9142,3.7436e-05,9.56276,3.01671,1.14304,0.0989911
292.9,823.0,293.553,93.4289,-648.248,729.571,81.3226,26.4413,40.6942,1.95303e-06,9.79711,3.10215,1.18716,0.100715
292.8,782.0,293.453,52.6535,-641.55,729.346,87.7969,27.0353,46.1937,7.69643e-08,10.0403,3.19125,1.23387,0.102484
292.7,817.0,293.353,87.8695,-634.024,729.13,95.1062,27.6496,52.492,2.29104e-09,10.2927,3.28423,1.28337,0.1043
292.6,837.0,293.253,108.171,-625.499,728.829,103.33,28.285,59.6665,5.15157e-11,10.5549,3.38131,1.3359,0.106165
292.5,829.0,293.1528,100.492,-615.967,728.508,112.542,28.9426,67.7893,8.75002e-13,10.8273,3.48274,1.3917,0.10808
292.4,854.0,293.053,125.84,-605.353,728.16,122.808,29.6234,76.9239,1.12264e-14,11.1106,3.58878,1.45104,0.110048
292.3,881.0,292.953,153.269,-593.551,727.731,134.18,30.3285,87.1203,1.08802e-16,11.4052,3.69971,1.51424,0.11207
292.2,913.0,292.853,185.79,-580.517,727.21,146.693,31.059,98.4107,7.96513e-19,11.7119,3.81583,1.58163,0.114148
292.1,859.0,292.753,132.279,-566.361,726.721,160.36,31.8163,110.805,4.40467e-21,12.0313,3.93748,1.65359,0.116284
292.0,922.0,292.6528,195.783,-551.052,726.217,175.165,32.6016,124.285,1.83991e-23,12.3641,4.06501,1.73054,0.118481
291.9,940.0,292.553,214.414,-534.524,725.586,191.062,33.4164,138.802,5.80552e-26,12.7111,4.19879,1.81294,0.120741
291.8,913.0,292.453,188.033,-516.998,724.967,207.97,34.2621,154.271,1.38372e-28,13.0731,4.33925,1.90132,0.123066
291.7,918.0,292.353,193.619,-498.611,724.381,225.769,35.1403,170.569,2.49127e-31,13.451,4.48683,1.99626,0.12546
291.6,959.0,292.253,235.279,-479.418,723.721,244.303,36.0527,187.536,3.38808e-34,13.8458,4.64201,2.09843,0.127923
291.5,931.0,292.1528,207.96,-459.665,723.04,263.375,37.0011,204.971,3.48056e-37,14.2585,4.80533,2.20857,0.13046
291.4,996.0,292.053,273.701,-439.548,722.299,282.751,37.9875,222.635,2.7009e-40,14.6902,4.97737,2.32752,0.133073
291.3,1036.0,291.953,314.605,-419.228,721.395,302.167,39.0138,240.26,1.58318e-43,15.1422,5.15873,2.45624,0.135766
291.2,1077.0,291.853,356.637,-399.032,720.363,321.331,40.0823,257.549,7.00993e-47,15.6156,5.35012,2.59582,0.138541
291.1,1082.0,291.753,362.743,-379.324,719.257,339.933,41.1952,274.185,2.34456e-50,16.1121,5.55227,2.74749,0.141402
291.0,1078.0,291.6528,359.854,-360.492,718.146,357.655,42.3552,289.843,5.92339e-54,16.633,5.766,2.91267,0.144352
290.9,1146.0,291.553,429.067,-342.756,716.933,374.177,43.5649,304.199,1.13043e-57,17.1801,5.9922,3.093,0.147397
290.8,1060.0,291.453,344.256,-326.549,715.744,389.196,44.8272,316.941,1.62959e-61,17.7551,6.23185,3.29036,0.150538
290.7,1111.0,291.353,396.394,-312.174,714.606,402.431,46.1451,327.779,1.77449e-65,18.3601,6.48604,3.50691,0.153781
290.6,1128.0,291.253,414.641,-299.719,713.359,413.639,47.522,336.462,1.4596e-69,18.9972,6.75594,3.7452,0.15713
290.5,1132.0,291.1528,419.924,-289.453,712.076,422.622,48.9615,342.781,9.06897e-74,19.6687,7.04287,4.00816,0.160589
290.4,1156.0,291.053,445.254,-281.508,710.746,429.238,50.4674,346.581,4.25641e-78,20.3772,7.34828,4.29926,0.164164
290.3,1121.0,290.953,411.571,-276.025,709.429,433.404,52.0438,347.77,1.50901e-82,21.1257,7.67376,4.62257,0.16786
290.2,1152.0,290.853,443.887,-273.008,708.113,435.106,53.6953,346.318,4.04113e-87,21.9171,8.02109,4.9829,0.171683
290.1,1172.0,290.753,465.284,-272.32,706.716,434.395,55.4266,342.26,8.17479e-92,22.7548,8.39225,5.38597,0.175637
290.0,1152.0,290.6528,446.686,-273.923,705.314,431.391,57.2431,335.697,1.24914e-96,23.6428,8.78944,5.83862,0.179729
289.9,1103.0,290.553,398.986,-277.741,704.014,426.272,59.1503,326.789,1.44182e-101,24.5851,9.21511,6.34904,0.183967
289.8,1120.0,290.453,417.241,-283.483,702.759,419.276,61.1545,315.748,1.25711e-106,25.5864,9.67202,6.92714,0.188356
289.7,1103.0,290.353,401.5,-290.814,701.5,410.686,63.2623,302.831,8.27938e-112,26.6517,10.1632,7.58495,0.192904
289.6,1103.0,290.253,402.736,-299.438,700.264,400.826,65.481,288.331,4.11893e-117,27.7868,10.6922,8.33716,0.197619
289.5,1070.0,290.1528,370.926,-309.031,699.074,390.044,67.8185,272.56,1.54787e-122,28.9979,11.2629,9.20177,0.202509
289.4,1031.0,290.053,333.008,-319.284,697.992,378.708,70.2834,255.844,4.39387e-128,30.2922,11.8797,10.201,0.207583
289.3,1040.0,289.953,343.047,-329.759,696.953,367.193,72.8852,238.508,9.42154e-134,31.6774,12.5476,11.3625,0.212851
289.2,1031.0,289.853,335.09,-340.037,695.91,355.874,75.6342,220.866,1.52602e-139,33.1622,13.2723,12.7206,0.218321
289.1,1053.0,289.753,358.156,-349.731,694.844,345.113,78.5417,203.213,1.86707e-145,34.7566,14.0603,14.3182,0.224005
289.0,1051.0,289.6528,357.255,-358.48,693.745,335.264,81.6202,185.815,1.72553e-151,36.4713,14.9189,16.2088,0.229914
288.9,1086.0,289.553,393.41,-365.93,692.59,326.661,84.8833,168.907,1.20462e-157,38.3187,15.8567,18.4592,0.236061
288.8,1046.0,289.453,354.559,-371.82,691.441,319.621,88.346,152.684,6.3524e-164,40.3124,16.8834,21.1521,0.242457
288.7,980.0,289.353,289.55,-376.005,690.45,314.445,92.025,137.306,2.5304e-170,42.4677,18.0102,24.3875,0.249117
288.6,996.0,289.253,306.466,-378.116,689.534,311.418,95.9388,122.889,7.61382e-177,44.8015,19.2503,28.2826,0.256056
288.5,1017.0,289.1528,328.442,-377.754,688.558,310.804,100.108,109.516,1.73053e-183,47.3328,20.6187,32.9651,0.263288
288.4,1016.0,289.053,328.452,-374.721,687.548,312.827,104.554,97.232,2.97111e-190,50.0827,22.133,38.554,0.270832
288.3,1018.0,288.953,331.466,-368.895,686.534,317.639,109.304,86.0518,3.85319e-197,53.0745,23.8141,45.1161,0.278705
288.2,985.0,288.853,299.436,-360.325,685.564,325.238,114.385,75.9634,3.77472e-204,56.3339,25.6859,52.5837,0.286926
288.1,1016.0,288.753,331.406,-349.245,684.594,335.349,119.828,66.9325,2.79327e-211,59.8891,27.7772,60.6268,0.295517
288.0,1014.0,288.6528,330.424,-336.291,683.576,347.285,125.669,58.9075,1.56136e-218,63.7708,30.1215,68.5113,0.3045
287.9,1046.0,288.553,363.49,-322.591,682.51,359.919,131.949,51.824,6.59257e-226,68.0125,32.7588,75.061,0.3139
287.8,1045.0,288.453,363.608,-309.455,681.392,371.936,138.711,45.6091,2.10267e-233,72.65,35.7366,78.9063,0.323741
287.7,1060.0,288.353,379.751,-297.829,680.249,382.42,146.006,40.1851,5.0658e-241,77.7215,39.1113,79.0621,0.334054
287.6,1087.0,288.253,407.962,-287.625,679.038,391.413,153.893,35.4728,9.21911e-249,83.2671,42.9504,75.4854,0.344867
287.5,1121.0,288.1528,443.271,-277.778,677.729,399.951,162.436,31.394,1.26734e-256,89.3287,47.334,69.1024,0.356215
287.4,1056.0,288.053,379.536,-266.928,676.464,409.536,171.711,27.8738,1.31601e-264,95.949,52.3576,61.2764,0.368133
287.3,1087.0,287.953,411.752,-253.703,675.248,421.544,181.804,24.8418,1.03225e-272,103.171,58.1345,53.2128,0.38066
287.2,1106.0,287.853,432.049,-236.994,673.951,436.956,192.813,22.233,6.11615e-281,111.036,64.7976,45.6825,0.393838
287.1,1110.0,287.753,437.386,-216.235,672.614,456.379,204.854,19.9887,2.73736e-289,119.585,72.5004,39.0429,0.407713
287.0,1179.0,287.6528,507.839,-190.976,671.161,480.185,218.059,18.0566,9.25442e-298,128.853,81.4166,33.3775,0.422335
286.9,1159.0,287.553,489.372,-160.984,669.628,508.643,232.582,16.3904,2.36335e-306,138.873,91.7337,28.6265,0.43776
286.8,1207.0,287.453,538.953,-126.058,668.047,541.989,248.606,14.9499,4.55901e-315,149.667,103.639,24.6732,0.454046
286.7,1241.0,287.353,574.665,-85.8881,666.335,580.447,266.344,13.7004,0.0,161.25,117.292,21.3895,0.471259
286.6,1279.0,287.253,614.493,-40.3028,664.507,624.204,286.048,12.6123,0.0,173.626,132.771,18.6572,0.489471
286.5,1293.0,287.1528,630.407,10.7487,662.593,673.341,308.018,11.6606,0.0,186.786,149.993,16.3746,0.508762
286.4,1404.0,287.053,743.519,67.2451,660.481,727.726,332.613,10.8239,0.0,200.704,168.598,14.4578,0.529217
286.3,1497.0,286.953,838.952,128.83,658.048,786.878,360.263,10.0847,0.0,215.336,187.804,12.839,0.550934
286.2,1501.0,286.853,845.542,194.419,655.458,849.877,391.488,9.42802,0.0,230.622,206.301,11.4634,0.574017
286.1,1597.0,286.753,944.294,262.692,652.706,915.398,426.92,8.84164,0.0,246.479,222.272,10.2876,0.598584
286.0,1628.0,286.6528,978.249,332.25,649.751,982.001,467.328,8.31528,0.0,262.803,233.653,9.27643,0.624766
285.9,1667.0,286.553,1020.32,402.02,646.678,1048.7,513.66,7.84044,0.0,279.471,238.673,8.40192,0.652707
285.8,1760.0,286.453,1116.61,472.228,643.393,1115.62,567.088,7.41005,0.0,296.335,236.464,7.64144,0.68257
285.7,1773.0,286.353,1133.07,544.494,639.935,1184.43,629.072,7.0182,0.0,313.232,227.416,6.97666,0.714533
285.6,1963.0,286.253,1326.85,622.084,636.153,1258.24,701.45,6.65998,0.0,329.977,213.009,6.39265,0.748801
285.5,1907.0,286.1528,1274.85,709.04,632.153,1341.19,786.557,6.33125,0.0,346.374,195.267,5.8772,0.785599
285.4,2098.0,286.053,1470.07,810.113,627.933,1438.05,887.403,6.02854,0.0,362.215,176.154,5.42026,0.825185
285.3,2190.0,285.953,1566.74,930.766,623.264,1554.03,1007.92,5.74889,0.0,377.285,157.191,5.01349,0.867848
285.2,2341.0,285.853,1722.79,1076.94,618.207,1695.15,1153.37,5.4898,0.0,391.368,139.361,4.64997,0.913916
285.1,2492.0,285.753,1879.33,1256.18,612.67,1868.85,1330.89,5.24911,0.0,404.252,123.172,4.32389,0.963762
285.0,2685.0,285.6528,2078.41,1478.54,606.585,2085.12,1550.51,5.02497,0.0,415.735,108.803,4.03037,1.01781
284.9,2917.0,285.553,2317.17,1758.39,599.827,2358.22,1826.7,4.81578,0.0,425.631,96.225,3.76528,1.07656
284.8,3365.0,285.453,2773,2117.5,592.002,2709.5,2181.14,4.62014,0.0,433.775,85.3037,3.52514,1.14055
284.7,3788.0,285.353,3205.19,2589.63,582.811,3172.45,2647.61,4.43682,0.0,440.026,75.8584,3.30694,1.21045
284.6,4275.0,285.253,3702.81,3229.61,572.191,3801.8,3281.17,4.26474,0.0,444.276,67.6991,3.10814,1.287
284.5,5145.0,285.1528,4585.55,4131.38,559.449,4690.83,4175.33,4.10295,0.0,446.45,60.6459,2.92652,1.37108
284.4,6515.0,285.053,5971.78,5458.09,543.219,6001.31,5492.09,3.9506,0.0,446.51,54.5369,2.76019,1.46371
284.3,8704.0,284.953,8182.54,7475.8,521.458,7997.26,7495.6,3.80693,0.0,444.453,49.231,2.60749,1.5661
284.2,11668.0,284.853,11176.3,10505.2,491.697,10996.9,10504.1,3.67126,0.0,440.318,44.6076,2.467,1.67968
284.1,15457.0,284.753,15005.6,14554.1,451.446,15005.6,14523.2,3.54299,0.0,434.176,40.5643,2.33745,1.80614
284.0,19016.0,284.6528,18616.2,18568.9,399.757,18968.7,18497.9,3.42155,0.0,426.135,37.0154,2.21775,1.94753
283.9,21076.0,284.553,20736.7,20336.8,339.258,20676.1,20218.3,3.30647,0.0,416.333,33.8885,2.10694,2.1063
283.8,18906.0,284.453,18627.3,18318.3,278.741,18597,18153.5,3.19727,0.0,404.934,31.1232,2.00416,2.28545
283.7,14300.0,284.353,14071.5,13564.6,228.471,13793,13364.8,3.09357,0.0,392.123,28.6685,1.90866,2.48865
283.6,9016.0,284.253,8822.73,8618.33,193.275,8811.61,8399.49,2.99497,0.0,378.101,26.4819,1.81978,2.72043
283.5,5126.0,284.1528,4953.9,5050.69,172.095,5222.78,4827.55,2.90115,0.0,363.081,24.5273,1.73692,2.98649
283.4,3091.0,284.053,2931.03,2934.64,159.973,3094.61,2716.79,2.81178,0.0,347.278,22.7742,1.65956,3.29399
283.3,2020.0,283.953,1867.4,1766.53,152.596,1919.13,1559.06,2.72659,0.0,330.906,21.1968,1.58722,3.65212
283.2,1402.0,283.853,1254.2,1116.33,147.797,1264.12,921.938,2.6453,0.0,314.175,19.7732,1.51948,4.07279
283.1,1070.0,283.753,925.554,739.146,144.446,883.592,559.23,2.56769,0.0,297.282,18.4845,1.45595,4.5717
283.0,875.0,283.6528,733.104,510.13,141.896,652.026,345.24,2.49351,0.0,280.411,17.3147,1.39631,5.16989
282.9,711.0,283.553,571.109,365.161,139.891,505.053,215.415,2.42258,0.0,263.729,16.25,1.34024,5.89615
282.8,600.0,283.453,461.697,269.901,138.303,408.205,135.112,2.3547,0.0,247.382,15.2784,1.28746,6.7908
282.7,495.0,283.353,357.957,205.114,137.043,342.157,84.8327,2.28969,0.0,231.496,14.3897,1.23772,7.91194
282.6,438.0,283.253,301.971,159.634,136.029,295.663,53.1481,2.22738,0.0,216.175,13.5748,1.1908,9.34622
282.5,400.0,283.1528,264.843,126.857,135.157,262.014,33.1409,2.16764,0.0,201.505,12.826,1.14648,11.2287
282.4,392.0,283.053,257.646,102.852,134.354,237.206,20.5264,2.11031,0.0,187.546,12.1365,1.10458,13.7826
282.3,363.0,282.953,229.395,85.3752,133.605,218.981,12.6072,2.05527,0.0,174.343,11.5002,1.06493,17.4101
282.2,352.0,282.853,219.084,73.5416,132.916,206.457,7.66824,2.00239,0.0,161.922,10.9119,1.02736,22.9254
282.1,358.0,282.753,225.768,68.1747,132.232,200.407,4.61369,1.95156,0.0,150.294,10.367,0.991742,32.1883
282.0,372.0,282.6528,240.485,73.0799,131.515,204.595,2.74325,1.90267,0.0,139.457,9.86128,0.957935,49.6734
281.9,396.0,282.553,265.262,97.7986,130.738,228.536,1.61062,1.85563,0.0,129.394,9.39124,0.925821,85.3585
281.8,440.0,282.453,310.147,159.851,129.853,289.704,0.933096,1.81034,0.0,120.085,8.9536,0.895289,157.027
281.7,550.0,282.353,421.271,279.358,128.729,408.087,0.533095,1.76671,0.0,111.497,8.5455,0.866238,284.879
281.6,691.0,282.253,563.786,458.08,127.214,585.295,0.300191,1.72466,0.0,103.594,8.16436,0.838574,470.673
281.5,899.0,282.1528,773.842,653.046,125.158,778.204,0.166535,1.68412,0.0,96.3371,7.80789,0.812209,671.396
281.4,1001.0,282.053,878.382,780.353,122.618,902.971,0.0909807,1.64501,0.0,89.6843,7.47402,0.787065,803.29
281.3,1020.0,281.953,900.116,769.755,119.884,889.638,0.0489297,1.60727,0.0,83.5925,7.16091,0.763066,796.465
281.2,898.0,281.853,780.701,624.705,117.299,742.004,0.025896,1.57082,0.0,78.0191,6.86688,0.740146,654.781
281.1,645.0,281.753,529.715,418.817,115.285,534.102,0.0134836,1.53562,0.0,72.9222,6.59043,0.718239,452.322
281.0,448.0,281.6528,334.043,233.61,113.957,347.567,0.00690524,1.50161,0.0,68.2614,6.3302,0.697289,270.77
280.9,302.0,281.553,188.847,107.611,113.153,220.764,0.00347735,1.46872,0.0,63.9985,6.08496,0.677239,148.531
280.8,254.0,281.453,141.355,36.3928,112.645,149.038,0.00172156,1.43692,0.0,60.0975,5.85358,0.658039,80.9905
280.7,194.0,281.353,81.6974,-0.539769,112.303,111.763,0.00083775,1.40615,0.0,56.5249,5.63505,0.639643,47.5562
280.6,192.0,281.253,79.9459,-20.2638,112.054,91.7903,0.000400636,1.37637,0.0,53.2497,5.42844,0.622005,31.1134
280.5,149.0,281.1528,37.1259,-32.1295,111.874,79.7446,0.000188261,1.34754,0.0,50.2437,5.2329,0.605085,22.3152
280.4,156.0,281.053,44.251,-40.2889,111.749,71.4601,8.69116e-05,1.31961,0.0,47.4808,5.04767,0.588844,17.023
280.3,161.0,280.953,49.395,-46.4127,111.605,65.1923,3.94136e-05,1.29255,0.0,44.9378,4.87204,0.573247,13.5166
280.2,181.0,280.853,69.5779,-51.2627,111.422,60.1594,1.75553e-05,1.26633,0.0,42.5935,4.70536,0.55826,11.036
280.1,140.0,280.753,28.729,-55.3092,111.271,55.9618,7.67921e-06,1.2409,0.0,40.4287,4.54703,0.543852,9.20126
280.0,139.0,280.6528,27.8159,-58.8152,111.184,52.3689,3.29855e-06,1.21624,0.0,38.4264,4.39652,0.529994,7.79977
279.9,143.0,280.553,31.9078,-61.8568,111.092,49.2355,1.39118e-06,1.19231,0.0,36.5712,4.25331,0.516657,6.70203
279.8,162.0,280.453,51.0353,-64.501,110.965,46.4638,5.76053e-07,1.16909,0.0,34.8493,4.11695,0.503817,5.82459
279.7,166.0,280.353,55.1986,-66.8166,110.801,43.9848,2.34163e-07,1.14655,0.0,33.2485,3.98701,0.491448,5.1113
279.6,141.0,280.253,30.3301,-68.9218,110.67,41.7481,9.34366e-08,1.12466,0.0,31.7578,3.86309,0.479528,4.52309
279.5,129.0,280.1528,18.405,-70.8795,110.595,39.7155,3.65955e-08,1.10339,0.0,30.3673,3.74482,0.468036,4.03199
279.4,146.0,280.053,35.4879,-72.6549,110.512,37.8572,1.40676e-08,1.08273,0.0,29.0681,3.63188,0.456952,3.61752
279.3,153.0,279.953,42.6079,-74.2423,110.392,36.1498,5.30719e-09,1.06265,0.0,27.8525,3.52395,0.446256,3.26439
279.2,137.0,279.853,26.7145,-75.7114,110.286,34.5741,1.96487e-09,1.04313,0.0,26.7134,3.42074,0.43593,2.96096
279.1,140.0,279.753,29.8014,-77.084,110.199,33.1146,7.13851e-10,1.02414,0.0,25.6443,3.32197,0.425958,2.69826
279.0,122.0,279.6528,11.8654,-78.3763,110.135,31.7583,2.5448e-10,1.00568,0.0,24.6396,3.22741,0.416324,2.46926
278.9,117.0,279.553,6.89427,-79.6117,110.106,30.494,8.9016e-11,0.987707,0.0,23.6941,3.1368,0.407012,2.2684
278.8,133.0,279.453,22.9401,-80.7473,110.06,29.3126,3.05494e-11,0.970219,0.0,22.8032,3.04995,0.398009,2.09123
278.7,126.0,279.353,16.0,-81.794,110.0,28.206,1.02847e-11,0.953196,0.0,21.9627,2.96663,0.389301,1.93413
278.6,110.0,279.253,0.0,-82.8328,110.0,27.1672,3.39928e-12,0.93662,0.0,21.1688,2.88667,0.380875,1.79418
278.5,126.0,279.1528,16.0,-83.8099,110.0,26.1901,1.10232e-12,0.920475,0.0,20.4181,2.80989,0.372719,1.66895
278.4,128.0,279.053,18.0,-84.7305,110.0,25.2695,3.48667e-13,0.904748,0.0,19.7074,2.73612,0.364822,1.55645
278.3,139.0,278.953,29.0,-85.5994,110.0,24.4006,1.09463e-13,0.889423,0.0,19.0338,2.66521,0.357173,1.45499
278.2,141.0,278.853,31.0,-86.4207,110.0,23.5793,3.39494e-14,0.874487,0.0,18.3949,2.597,0.349762,1.36318
278.1,144.0,278.753,34.0,-87.1981,110.0,22.8019,1.0926e-14,0.859927,0.0,17.7882,2.53138,0.342579,1.27982
278.0,125.0,278.6528,15.0,-87.935,110.0,22.065,3.5185e-15,0.84573,0.0,17.2115,2.4682,0.335614,1.2039
277.9,114.0,278.553,4.0,-88.6344,110.0,21.3656,0.0,0.831883,0.0,16.6629,2.40735,0.328859,1.13456
277.8,118.0,278.453,8.0,-89.2989,110.0,20.7011,0.0,0.818377,0.0,16.1406,2.34872,0.322306,1.07106
277.7,126.0,278.353,16.0,-89.9311,110.0,20.0689,0.0,0.805198,0.0,15.6428,2.29219,0.315947,1.01276
277.6,141.0,278.253,31.0,-90.533,110.0,19.467,0.0,0.792338,0.0,15.1681,2.23768,0.309774,0.959111
277.5,115.0,278.1528,5.0,-91.1068,110.0,18.8932,0.0,0.779785,0.0,14.715,2.18508,0.30378,0.909621
277.4,123.0,278.053,13.0,-91.6542,110.0,18.3458,0.0,0.76753,0.0,14.2821,2.1343,0.297958,0.863874
277.3,137.0,277.953,27.0,-92.1769,110.0,17.8231,0.0,0.755563,0.0,13.8684,2.08528,0.292301,0.821501
277.2,121.0,277.853,11.0,-92.6766,110.0,17.3234,0.0,0.743876,0.0,13.4727,2.03792,0.286804,0.782177
277.1,117.0,277.753,7.0,-93.1545,110.0,16.8455,0.0,0.732459,0.0,13.0938,1.99215,0.28146,0.745617