File: XPS/LG4X-result/MX-UT-0.5-4-Ti2p.csv
#No of rows lightened (2D detector)1(if not using 2D detector, value is 1 and can be ignored!)
raw_x,raw_y,corrected x,data-bg,sum_components,bg,sum_fit,TiC,Ti 2+,Ti 3+,C_4,C_5,C_6,C_7,C_8
470.0,15744.0,470.6528,425.0,-15226.5,15319.0,92.5027,19.9586,37.4276,29.4572,0.725963,4.08055e-09,5.52554e-14,4.93321,0.000141567
469.9,16026.0,470.5528,707.0,-15225.3,15319.0,93.6752,20.2116,37.9244,29.8688,0.741751,6.96004e-09,1.38197e-13,4.92858,0.000141411
469.8,15860.0,470.453,541.0,-15224.1,15319.0,94.8718,20.4694,38.4313,30.289,0.758061,1.18065e-08,3.41895e-13,4.92394,0.000141256
469.7,15909.0,470.353,590.0,-15222.9,15319.0,96.093,20.7322,38.9483,30.7181,0.774918,1.9918e-08,8.3667e-13,4.91931,0.0001411
469.6,15831.0,470.253,512.0,-15221.7,15319.0,97.3396,21.0001,39.4758,31.1565,0.792346,3.34184e-08,2.02527e-12,4.91467,0.000140945
469.5,15872.0,470.1528,553.0,-15220.4,15319.0,98.6122,21.2732,40.0142,31.6043,0.810371,5.57625e-08,4.84931e-12,4.91004,0.00014079
469.4,15860.0,470.0528,541.0,-15219.1,15319.0,99.9117,21.5517,40.5636,32.0619,0.829021,9.25367e-08,1.14854e-11,4.9054,0.000140635
469.3,15731.0,469.953,412.0,-15217.8,15319.0,101.239,21.8356,41.1243,32.5295,0.848326,1.52722e-07,2.69078e-11,4.90076,0.000140481
469.2,15882.0,469.853,563.0,-15216.4,15319.0,102.594,22.1252,41.6968,33.0074,0.868316,2.50671e-07,6.2356e-11,4.89612,0.000140326
469.1,15871.0,469.753,552.0,-15215,15319.0,103.979,22.4206,42.2813,33.496,0.889024,4.09188e-07,1.42938e-10,4.89147,0.000140172
469.0,15956.0,469.6528,637.0,-15213.6,15319.0,105.393,22.722,42.8782,33.9954,0.910487,6.64289e-07,3.24103e-10,4.88683,0.000140017
468.9,15789.0,469.5528,470.0,-15212.2,15319.0,106.839,23.0295,43.4878,34.5062,0.93274,1.07252e-06,7.26921e-10,4.88218,0.000139863
468.8,15820.0,469.453,501.0,-15210.7,15319.0,108.316,23.3432,44.1105,35.0286,0.955823,1.72215e-06,1.61272e-09,4.87754,0.00013971
468.7,15964.0,469.353,645.0,-15209.2,15319.0,109.826,23.6634,44.7466,35.5629,0.979778,2.75013e-06,3.53915e-09,4.87289,0.000139556
468.6,15834.0,469.253,515.0,-15207.6,15319.0,111.369,23.9902,45.3966,36.1096,1.00465,4.36767e-06,7.68258e-09,4.86824,0.000139402
468.5,15757.0,469.1528,438.0,-15206.1,15319.0,112.948,24.3239,46.0608,36.6691,1.03049,6.89862e-06,1.64962e-08,4.86359,0.000139249
468.4,15865.0,469.0528,546.0,-15204.4,15319.0,114.562,24.6645,46.7397,37.2416,1.05734,1.08365e-05,3.5037e-08,4.85894,0.000139096
468.3,15972.0,468.953,653.0,-15202.8,15319.0,116.213,25.0124,47.4337,37.8277,1.08526,1.69291e-05,7.36103e-08,4.85428,0.000138943
468.2,15817.0,468.853,498.0,-15201.1,15319.0,117.903,25.3676,48.1433,38.4277,1.11431,2.63022e-05,1.52974e-07,4.84963,0.00013879
468.1,15526.0,468.753,207.0,-15199.4,15319.0,119.631,25.7305,48.8689,39.0422,1.14455,4.06413e-05,3.1446e-07,4.84497,0.000138637
468.0,15675.0,468.6528,356.0,-15197.6,15319.0,121.4,26.1012,49.611,39.6716,1.17604,6.24537e-05,6.39412e-07,4.84032,0.000138484
467.9,15703.0,468.5528,384.0,-15195.8,15319.0,123.211,26.4799,50.3701,40.3163,1.20886,9.54474e-05,1.28607e-06,4.83566,0.000138332
467.8,15684.0,468.453,365.0,-15193.9,15319.0,125.065,26.867,51.1467,40.9769,1.24308,0.000145073,2.55867e-06,4.831,0.00013818
467.7,15580.0,468.353,261.0,-15192,15319.0,126.963,27.2626,51.9415,41.6539,1.27879,0.000219292,5.0354e-06,4.82634,0.000138028
467.6,15702.0,468.253,383.0,-15190.1,15319.0,128.908,27.667,52.7549,42.3479,1.31606,0.000329667,9.80212e-06,4.82168,0.000137876
467.5,15775.0,468.1528,456.0,-15188.1,15319.0,130.9,28.0804,53.5875,43.0594,1.35499,0.000492884,1.88745e-05,4.81702,0.000137724
467.4,15599.0,468.0528,280.0,-15186.1,15319.0,132.941,28.5032,54.44,43.789,1.3957,0.000732873,3.59498e-05,4.81235,0.000137572
467.3,15498.0,467.953,179.0,-15184,15319.0,135.033,28.9356,55.3129,44.5373,1.43827,0.00108375,6.77307e-05,4.80769,0.000137421
467.2,15558.0,467.853,239.0,-15181.8,15319.0,137.178,29.3779,56.207,45.3051,1.48283,0.00159384,0.000126224,4.80302,0.00013727
467.1,15670.0,467.753,351.0,-15179.6,15319.0,139.377,29.8304,57.1229,46.0929,1.52951,0.00233117,0.000232684,4.79835,0.000137118
467.0,15555.0,467.6528,236.0,-15177.4,15319.0,141.632,30.2934,58.0614,46.9015,1.57843,0.00339095,0.000424285,4.79369,0.000136968
466.9,15565.0,467.5528,246.0,-15175.1,15319.0,143.947,30.7673,59.0231,47.7316,1.62975,0.00490551,0.00076527,4.78902,0.000136817
466.8,15433.0,467.453,114.0,-15172.7,15319.0,146.322,31.2524,60.0089,48.584,1.68363,0.00705768,0.00136533,4.78435,0.000136666
466.7,15466.0,467.353,147.0,-15170.2,15319.0,148.761,31.749,61.0196,49.4595,1.74024,0.0100985,0.00240951,4.77967,0.000136516
466.6,15532.0,467.253,213.0,-15167.7,15319.0,151.266,32.2575,62.0561,50.3589,1.79976,0.0143703,0.00420614,4.775,0.000136365
466.5,15514.0,467.1528,195.0,-15165.2,15319.0,153.841,32.7784,63.1191,51.2831,1.86239,0.0203371,0.00726278,4.77033,0.000136215
466.4,15437.0,467.0528,118.0,-15162.5,15319.0,156.49,33.3119,64.2096,52.2331,1.92836,0.028624,0.0124047,4.76565,0.000136065
466.3,15371.0,466.953,52.0,-15159.8,15319.0,159.217,33.8586,65.3286,53.2098,1.9979,0.0400669,0.0209571,4.76098,0.000135915
466.2,15530.0,466.853,211.0,-15157,15319.0,162.029,34.4188,66.477,54.2142,2.07128,0.0557773,0.0350217,4.7563,0.000135766
466.1,15476.0,466.753,157.0,-15154.1,15319.0,164.932,34.993,67.656,55.2474,2.14877,0.0772227,0.0578897,4.75162,0.000135616
466.0,15522.0,466.6528,203.0,-15151.1,15319.0,167.938,35.5817,68.8666,56.3105,2.23069,0.106328,0.0946503,4.74695,0.000135467
465.9,15389.0,466.5528,70.0,-15147.9,15319.0,171.058,36.1854,70.1099,57.4047,2.31738,0.145602,0.153072,4.74227,0.000135317
465.8,15490.0,466.453,171.0,-15144.7,15319.0,174.313,36.8045,71.3871,58.5312,2.40921,0.19829,0.244862,4.73759,0.000135168
465.7,15575.0,466.353,256.0,-15141.3,15319.0,177.726,37.4397,72.6995,59.6912,2.50659,0.268566,0.387429,4.7329,0.000135019
465.6,15466.0,466.253,147.0,-15137.7,15319.0,181.332,38.0914,74.0484,60.8862,2.60997,0.361756,0.606322,4.72822,0.000134871
465.5,15541.0,466.1528,222.0,-15133.8,15319.0,185.18,38.7602,75.4351,62.1176,2.71984,0.484615,0.938534,4.72354,0.000134722
465.4,15319.0,466.0528,0.0,-15129.7,15319.0,189.333,39.4468,76.861,63.3868,2.83676,0.645645,1.4369,4.71885,0.000134574
465.3,15556.0,465.953,237.908,-15124.2,15318.1,193.882,40.1518,78.3277,64.6954,2.96133,0.855473,2.17581,4.71417,0.000134425
465.2,15413.0,465.853,96.1832,-15117.9,15316.8,198.947,40.8759,79.8367,66.0451,3.09422,1.12729,3.25856,4.70948,0.000134277
465.1,15460.0,465.753,144.1,-15111.2,15315.9,204.692,41.6196,81.3897,67.4376,3.2362,1.47733,4.82649,4.7048,0.000134129
465.0,15581.0,465.6528,266.668,-15103,15314.3,211.331,42.3838,82.9884,68.8748,3.3881,1.92547,7.07008,4.70011,0.000133982
464.9,15413.0,465.5528,100.068,-15093.8,15312.9,219.147,43.1693,84.6345,70.3586,3.55086,2.49581,10.2421,4.69542,0.000133834
464.8,15460.0,465.453,148.015,-15083.5,15312,228.504,43.9767,86.3301,71.891,3.72555,3.21738,14.6728,4.69073,0.000133686
464.7,15645.0,465.353,334.858,-15070.3,15310.1,239.869,44.807,88.077,73.4742,3.91336,4.12485,20.7861,4.68604,0.000133539
464.6,15718.0,465.253,410.704,-15053.5,15307.3,253.823,45.6609,89.8773,75.1105,4.11567,5.25933,29.1174,4.68135,0.000133392
464.5,15836.0,465.1528,532.303,-15032.6,15303.7,271.085,46.5395,91.7334,76.8022,4.33401,6.6691,40.33,4.67666,0.000133245
464.4,15505.0,465.0528,204.114,-15008.4,15300.9,292.526,47.4436,93.6474,78.552,4.57019,8.41047,55.2298,4.67197,0.000133098
464.3,15527.0,464.953,227.762,-14980.1,15299.2,319.177,48.3743,95.6218,80.3625,4.82626,10.5485,74.7762,4.66728,0.000132951
464.2,15941.0,464.853,645.094,-14943.7,15295.9,352.238,49.3326,97.6592,82.2366,5.10461,13.1575,100.085,4.66258,0.000132805
464.1,15977.0,464.753,686.175,-14897.8,15290.8,393.067,50.3197,99.7623,84.1773,5.40808,16.322,132.42,4.65789,0.000132658
464.0,15995.0,464.6528,709.502,-14842.3,15285.5,443.164,51.3365,101.934,86.1878,5.74003,20.1367,173.176,4.65319,0.000132512
463.9,16029.0,464.5528,749.069,-14775.8,15279.9,504.13,52.3845,104.177,88.2715,6.10454,24.707,223.837,4.6485,0.000132366
463.8,16033.0,464.453,758.825,-14696.6,15274.2,577.614,53.4649,106.495,90.4321,6.5067,30.1486,285.923,4.6438,0.00013222
463.7,16293.0,464.353,1025.64,-14602.1,15267.4,665.232,54.5789,108.891,92.6733,6.9531,36.5872,360.91,4.6391,0.000132074
463.6,16329.0,464.253,1069.63,-14490.9,15259.4,768.469,55.7281,111.368,94.9993,7.45267,44.1578,450.129,4.6344,0.000131929
463.5,16472.0,464.1528,1221.38,-14362.1,15250.6,888.561,56.9138,113.931,97.4144,8.01828,53.003,554.651,4.62971,0.000131783
463.4,16614.0,464.0528,1373.28,-14214.4,15240.7,1026.36,58.1378,116.583,99.9232,8.66963,63.2717,675.151,4.62501,0.000131638
463.3,16601.0,463.953,1370.75,-14048,15230.2,1182.21,59.4016,119.329,102.531,9.4384,75.1164,811.771,4.62031,0.000131493
463.2,16704.0,463.853,1484.65,-13863.6,15219.3,1355.79,60.7069,122.172,105.242,10.3775,88.6901,963.982,4.61561,0.000131348
463.1,16714.0,463.753,1506.07,-13661.9,15207.9,1546.03,62.0557,125.118,108.063,11.577,104.143,1130.46,4.61091,0.000131203
463.0,17055.0,463.6528,1859.92,-13444,15195.1,1751.06,63.4498,128.172,111,13.1903,121.619,1309.03,4.6062,0.000131058
462.9,17363.0,463.5528,2183.35,-13211.5,15179.7,1968.17,64.8913,131.338,114.058,15.4767,141.251,1496.55,4.6015,0.000130914
462.8,17496.0,463.453,2333.59,-12968.5,15162.4,2193.89,66.3825,134.623,117.246,18.8647,163.152,1689.03,4.5968,0.000130769
462.7,17588.0,463.353,2443.82,-12720,15144.2,2424.21,67.9254,138.032,120.57,24.0451,187.418,1881.63,4.5921,0.000130625
462.6,18012.0,463.253,2888.18,-12469,15123.8,2654.79,69.5227,141.572,124.038,32.0958,214.115,2068.86,4.58739,0.000130481
462.5,18049.0,463.1528,2947.45,-12220.2,15101.6,2881.38,71.1769,145.25,127.659,44.6398,243.274,2244.8,4.58269,0.000130337
462.4,18411.0,463.053,3333.42,-11977.3,15077.6,3100.29,72.8906,149.072,131.442,64.0243,274.892,2403.4,4.57798,0.000130193
462.3,18657.0,462.953,3605.91,-11742.2,15051.1,3308.88,74.6669,153.047,135.396,93.497,308.918,2538.78,4.57328,0.00013005
462.2,18532.0,462.853,3508.06,-11517.9,15023.9,3506.01,76.5087,157.182,139.534,137.336,345.255,2645.63,4.56857,0.000129906
462.1,18916.0,462.753,3920.42,-11303.1,14995.6,3692.46,78.4193,161.487,143.865,200.871,383.753,2719.5,4.56386,0.000129763
462.0,19038.0,462.6528,4072.93,-11094.1,14965.1,3871.02,80.4022,165.97,148.402,290.317,424.209,2757.16,4.55916,0.00012962
461.9,19234.0,462.553,4300.89,-10886.8,14933.1,4046.3,82.4611,170.642,153.159,412.349,466.363,2756.77,4.55445,0.000129477
461.8,19406.0,462.453,4506.5,-10675.3,14899.5,4224.16,84.5998,175.513,158.151,573.365,509.898,2718.08,4.54974,0.000129334
461.7,19295.0,462.353,4429.61,-10454.7,14865.4,4410.69,86.8226,180.596,163.392,778.442,554.444,2642.44,4.54503,0.000129191
461.6,19673.0,462.253,4843,-10219.1,14830,4610.85,89.1339,185.901,168.901,1030.05,599.582,2532.74,4.54032,0.000129049
461.5,19888.0,462.1528,5095.94,-9965.11,14792.1,4826.95,91.5384,191.442,174.696,1326.7,644.844,2393.19,4.53562,0.000128906
461.4,20075.0,462.053,5322.71,-9695.03,14752.3,5057.26,94.0412,197.234,180.797,1661.84,689.726,2229.09,4.53091,0.000128764
461.3,20153.0,461.953,5441.79,-9416.2,14711.2,5295.01,96.6478,203.291,187.226,2023.14,733.692,2046.48,4.5262,0.000128622
461.2,20247.0,461.853,5577.85,-9141.02,14669.1,5528.13,99.3639,209.631,194.007,2392.68,776.188,1851.74,4.52149,0.00012848
461.1,20497.0,461.753,5871.56,-8885.42,14625.4,5740.03,102.196,216.27,201.168,2747.98,816.649,1651.25,4.51677,0.000128338
461.0,20689.0,461.6528,6109.28,-8668.46,14579.7,5911.25,105.15,223.228,208.737,3064.1,854.515,1451.02,4.51206,0.000128197
460.9,20789.0,461.553,6256.48,-8510.46,14532.5,6022.06,108.233,230.525,216.745,3316.4,889.241,1256.41,4.50735,0.000128055
460.8,20709.0,461.453,6224.12,-8429.58,14484.9,6055.3,111.454,238.183,225.229,3483.71,920.312,1071.91,4.50264,0.000127914
460.7,20471.0,461.353,6032.9,-8438.85,14438.1,5999.25,114.82,246.228,234.227,3551.23,947.254,900.996,4.49793,0.000127773
460.6,20324.0,461.253,5931.57,-8542.68,14392.4,5849.74,118.341,254.684,243.781,3512.69,969.646,746.111,4.49322,0.000127632
460.5,20062.0,461.1528,5714.02,-8736.84,14348,5611.14,122.025,263.58,253.94,3371.32,987.133,608.657,4.4885,0.000127491
460.4,20044.0,461.053,5739.74,-9008.28,14304.3,5295.99,125.883,272.946,264.755,3139.38,999.433,489.109,4.48379,0.00012735
460.3,19451.0,460.953,5188.45,-9339.18,14262.6,4923.38,129.926,282.816,276.285,2836.37,1006.35,387.151,4.47908,0.000127209
460.2,18988.0,460.853,4763.43,-9708.14,14224.6,4516.42,134.167,293.226,288.595,2486.36,1007.76,301.838,4.47436,0.000127069
460.1,18407.0,460.753,4216.71,-10091,14190.3,4099.25,138.617,304.216,301.757,2114.77,1003.65,231.775,4.46965,0.000126929
460.0,18005.0,460.6528,3845.48,-10465.3,14159.5,3694.18,143.291,315.827,315.854,1745.38,994.082,175.282,4.46494,0.000126788
459.9,17731.0,460.553,3599.9,-10811.6,14131.1,3319.48,148.205,328.107,330.976,1397.97,979.216,130.548,4.46022,0.000126648
459.8,17235.0,460.453,3129.59,-11117.4,14105.4,2988.03,153.374,341.108,347.227,1086.83,959.29,95.7507,4.45551,0.000126509
459.7,16738.0,460.353,2654.66,-11376.3,14083.3,2706.99,158.817,354.884,364.72,820.337,934.625,69.1575,4.45079,0.000126369
459.6,16532.0,460.253,2468.22,-11585.5,14063.8,2478.26,164.554,369.496,383.589,601.384,905.609,49.1864,4.44608,0.000126229
459.5,16505.0,460.1528,2460.03,-11745.4,14045,2299.6,170.605,385.013,403.981,428.424,872.689,34.4464,4.44136,0.00012609
459.4,16408.0,460.053,2381.51,-11860.6,14026.5,2165.94,176.994,401.505,426.066,296.821,836.361,23.7531,4.43665,0.000125951
459.3,16305.0,459.953,2296.36,-11937.9,14008.6,2070.77,183.746,419.054,450.035,200.219,797.156,16.1273,4.43193,0.000125812
459.2,16165.0,459.853,2173.42,-11984.3,13991.6,2007.3,190.89,437.748,476.112,131.71,755.63,10.7809,4.42722,0.000125673
459.1,16169.0,459.753,2194.09,-12005.7,13974.9,1969.25,198.456,457.683,504.549,84.7022,712.345,7.09555,4.4225,0.000125534
459.0,16205.0,459.6528,2247.04,-12006.6,13958,1951.4,206.477,478.966,535.641,53.4402,667.863,4.59773,4.41779,0.000125395
458.9,16041.0,459.553,2099.64,-11991.6,13941.4,1949.75,214.991,501.713,569.726,33.2481,622.73,2.93302,4.41307,0.000125257
458.8,16050.0,459.453,2124.76,-11963.7,13925.2,1961.56,224.039,526.056,607.198,20.5459,577.468,1.84201,4.40835,0.000125118
458.7,16257.0,459.353,2348.83,-11923,13908.2,1985.16,233.665,552.135,648.518,12.7332,532.563,1.13883,4.40364,0.00012498
458.6,16004.0,459.253,2112.86,-11871.3,13891.1,2019.81,243.919,580.109,694.22,8.0087,488.462,0.693128,4.39892,0.000124842
458.5,16193.0,459.1528,2318.78,-11808.7,13874.2,2065.49,254.858,610.152,744.933,5.17749,445.559,0.41528,4.39421,0.000124704
458.4,16354.0,459.053,2498.17,-11733.1,13855.8,2122.7,266.543,642.46,801.39,3.47806,404.2,0.244925,4.38949,0.000124566
458.3,16139.0,458.953,2301.48,-11645.1,13837.5,2192.38,279.042,677.247,864.449,2.44234,364.672,0.142194,4.38477,0.000124429
458.2,16283.0,458.853,2463.67,-11543.6,13819.3,2275.76,292.431,714.753,935.111,1.79177,327.208,0.0812606,4.38006,0.000124291
458.1,16365.0,458.753,2564.87,-11425.8,13800.1,2374.35,306.798,755.247,1014.53,1.36508,291.986,0.0457108,4.37534,0.000124154
458.0,16574.0,458.6528,2794.32,-11289.8,13779.7,2489.91,322.238,799.029,1104.05,1.07071,259.128,0.0253099,4.37063,0.000124017
457.9,16465.0,458.553,2706.32,-11134.3,13758.7,2624.41,338.859,846.435,1205.16,0.857266,228.709,0.0137939,4.36591,0.00012388
457.8,16574.0,458.453,2836.47,-10957.5,13737.5,2780.01,356.783,897.844,1319.56,0.695796,200.756,0.00739955,4.36119,0.000123743
457.7,16615.0,458.353,2899.37,-10756.5,13715.6,2959.09,376.149,953.684,1449.08,0.569653,175.254,0.00390693,4.35648,0.000123606
457.6,17010.0,458.253,3318.1,-10527.8,13691.9,3164.15,397.113,1014.44,1595.63,0.468881,152.154,0.00203036,4.35176,0.000123469
457.5,17063.0,458.1528,3396.73,-10268.5,13666.3,3397.77,419.852,1080.65,1761.15,0.38719,131.376,0.00103851,4.34704,0.000123333
457.4,17191.0,458.053,3551.25,-9977.28,13639.8,3662.47,444.57,1152.96,1947.47,0.320345,112.814,0.000522808,4.34233,0.000123196
457.3,17873.0,457.953,4263.07,-9649.31,13609.9,3960.62,471.499,1232.07,2156.1,0.265324,96.3438,0.000259039,4.33761,0.00012306
457.2,18029.0,457.853,4452.34,-9282.52,13576.7,4294.14,500.906,1318.81,2388.04,0.219868,81.828,0.00012632,4.3329,0.000122924
457.1,18433.0,457.753,4892,-8876.64,13541,4664.36,533.098,1414.13,2643.5,0.182223,69.1187,6.0626e-05,4.32818,0.000122788
457.0,18966.0,457.6528,5464.53,-8429.79,13501.5,5071.67,568.429,1519.12,2921.58,0.150998,58.0638,2.86365e-05,4.32347,0.000122653
456.9,19283.0,457.553,5824.62,-7943.06,13458.4,5515.32,607.313,1635.06,3219.99,0.125076,48.5099,1.33123e-05,4.31875,0.000122517
456.8,19552.0,457.453,6139.29,-7419.6,13412.7,5993.12,650.23,1763.42,3534.74,0.103544,40.3061,6.09046e-06,4.31404,0.000122382
456.7,20163.0,457.353,6799.67,-6861.97,13363.3,6501.35,697.742,1905.93,3859.98,0.0856553,33.3063,2.74227e-06,4.30932,0.000122246
456.6,20730.0,457.253,7420.95,-6274.31,13309,7034.73,750.508,2064.59,4187.89,0.0707948,27.3715,1.21514e-06,4.3046,0.000122111
456.5,20878.0,457.1528,7626.39,-5665.05,13251.6,7586.57,809.307,2241.76,4508.78,0.0584537,22.371,5.29906e-07,4.29989,0.000121976
456.4,21550.0,457.053,8359.4,-5041.47,13190.6,8149.13,875.061,2440.14,4811.4,0.04821,18.184,2.27416e-07,4.29518,0.000121841
456.3,21968.0,456.953,8843.06,-4410.67,13124.9,8714.27,948.867,2662.88,5083.49,0.039713,14.6997,9.60481e-08,4.29046,0.000121706
456.2,22470.0,456.853,9414.75,-3781.08,13055.3,9274.17,1032.04,2913.56,5312.44,0.0326707,11.818,3.99209e-08,4.28575,0.000121572
456.1,22802.0,456.753,9820.17,-3159.55,12981.8,9822.29,1126.15,3196.15,5486.23,0.0268398,9.44914,1.63287e-08,4.28103,0.000121437
456.0,23160.0,456.6528,10254.8,-2550.99,12905.2,10354.2,1233.1,3514.92,5594.39,0.0220171,7.51377,6.57266e-09,4.27632,0.000121303
455.9,23901.0,456.553,11077.2,-1955.31,12823.8,10868.5,1355.18,3874.14,5628.93,0.0180331,5.94209,2.60354e-09,4.27161,0.000121169
455.8,24322.0,456.453,11584.7,-1370.55,12737.3,11366.7,1495.19,4277.48,5585.12,0.0147463,4.67343,1.01489e-09,4.26689,0.000121035
455.7,24770.0,456.353,12123.2,-793.285,12646.8,11853.5,1656.54,4726.96,5462.09,0.0120384,3.65552,3.89313e-10,4.26218,0.000120901
455.6,25372.0,456.253,12820.4,-216.931,12551.6,12334.7,1843.36,5221.18,5263.01,0.00981088,2.84365,1.46962e-10,4.25747,0.000120767
455.5,25397.0,456.1528,12943.7,361.456,12453.3,12814.7,2060.74,5752.53,4994.98,0.0079813,2.19999,5.45928e-11,4.25275,0.000120634
455.4,25870.0,456.053,13517.7,940.559,12352.3,13292.8,2314.83,6303.57,4668.47,0.00648106,1.6927,1.99566e-11,4.24804,0.0001205
455.3,26196.0,455.953,13948.6,1510.67,12247.4,13758.1,2613.09,6842.93,4296.53,0.00525297,1.29525,7.17884e-12,4.24333,0.000120367
455.2,26298.0,455.853,14157.9,2046.05,12140.1,14186.2,2964.37,7322.85,3893.75,0.00424945,0.985702,2.54119e-12,4.23862,0.000120234
455.1,26706.0,455.753,14675.9,2510.23,12030.1,14540.3,3378.95,7681.23,3475.16,0.00343093,0.746022,8.85187e-13,4.23391,0.000120101
455.0,26821.0,455.6528,14903.8,2862.65,11917.2,14779.8,3868.18,7851.73,3055.13,0.00276455,0.561531,3.0342e-13,4.2292,0.000119968
454.9,26918.0,455.553,15115.4,3073.9,11802.6,14876.5,4443.45,7781.91,2646.5,0.00222309,0.42035,1.02344e-13,4.22449,0.000119835
454.8,26785.0,455.453,15097.7,3143.88,11687.3,14831.2,5113.48,7453.28,2259.88,0.001784,0.312942,3.39693e-14,4.21978,0.000119703
454.7,26416.0,455.353,14843,3104.62,11573,14677.6,5877.53,6892.39,1903.25,0.00142864,0.231704,1.10947e-14,4.21507,0.00011957
454.6,26044.0,455.253,14583.3,2997.13,11460.7,14457.8,6706.69,6164.84,1581.9,0.00114164,0.170615,3.56574e-15,4.21036,0.000119438
454.5,25831.0,455.1528,14481.2,2807.67,11349.8,14157.4,7499.86,5354.71,1298.53,0.00091033,0.124945,1.12768e-15,4.20565,0.000119306
454.4,24860.0,455.053,13617.5,2374.9,11242.5,13617.4,8018.71,4540.81,1053.59,0.000724309,0.0909983,3.50929e-16,4.20094,0.000119174
454.3,23890.0,454.953,12748.1,1376.7,11141.9,12518.6,7887.61,3780.98,845.729,0.000575032,0.065912,1.07461e-16,4.19623,0.000119042
454.2,21809.0,454.853,10756.8,-458.988,11052.2,10593.2,6808.84,3107.8,672.283,0.000455505,0.0474801,3.23803e-17,4.19152,0.00011891
454.1,19243.0,454.753,8263.44,-2986.74,10979.6,7992.81,4926.02,2532.81,529.759,0.000360011,0.0340153,9.60074e-18,4.18682,0.000118778
454.0,16348.0,454.6528,5420.67,-5575.76,10927.3,5351.56,2879.46,2053.65,414.25,0.000283891,0.0242355,2.80106e-18,4.18211,0.000118647
453.9,14368.0,454.553,3474.63,-7579.35,10893.4,3314.03,1327.43,1660.62,321.777,0.000223353,0.017173,8.04138e-19,4.1774,0.000118515
453.8,13215.0,454.453,2343.84,-8800.83,10871.2,2070.33,476.27,1341.34,248.534,0.000175318,0.0121019,2.27159e-19,4.1727,0.000118384
453.7,12433.0,454.353,1576.8,-9445.38,10856.2,1410.82,132.227,1083.36,191.055,0.000137293,0.00848165,6.31421e-20,4.16799,0.000118253
453.6,11984.0,454.253,1138.16,-9791.61,10845.8,1054.23,28.3557,875.411,146.295,0.000107263,0.00591182,1.72701e-20,4.16329,0.000118122
453.5,11717.0,454.1528,878.861,-10009.7,10838.1,828.428,4.6962,707.908,111.661,8.36033e-05,0.00409805,4.64791e-21,4.15858,0.000117992
453.4,11550.0,454.053,717.956,-10169.4,10832,662.677,0.600777,572.919,84.9997,6.50071e-05,0.0028252,1.23085e-21,4.15388,0.000117861
453.3,11641.0,453.953,814.806,-10293.4,10826.2,532.785,0.0593661,464.015,64.5592,5.04261e-05,0.00193703,3.20727e-22,4.14917,0.00011773
453.2,11444.0,453.853,623.295,-10391.6,10820.7,429.124,0.00452988,376.037,48.9374,3.90212e-05,0.00132081,8.22338e-23,4.14447,0.0001176
453.1,11454.0,453.753,638.11,-10469.9,10815.9,346.029,0.000266756,304.861,37.0277,3.01225e-05,0.000895692,2.07465e-23,4.13977,0.00011747
453.0,11337.0,453.6528,525.552,-10532.1,10811.4,279.303,1.21145e-05,247.201,27.9658,2.31964e-05,0.000604078,5.15017e-24,4.13507,0.00011734
452.9,11405.0,453.553,597.839,-10581.5,10807.2,225.65,4.23939e-07,200.437,21.0821,1.78189e-05,0.000405175,1.25799e-24,4.13037,0.00011721
452.8,11154.0,453.453,350.459,-10621.1,10803.5,182.461,1.14221e-08,162.474,15.8611,1.36543e-05,0.000270277,3.0235e-25,4.12567,0.00011708
452.7,11101.0,453.353,299.941,-10653.4,10801.1,147.663,2.36753e-10,131.634,11.907,1.04371e-05,0.000179304,7.15025e-26,4.12097,0.00011695
452.6,11133.0,453.253,334.363,-10679,10798.6,119.605,3.75243e-12,106.571,8.91733,7.95803e-06,0.000118301,1.66382e-26,4.11627,0.000116821
452.5,11071.0,453.1528,274.687,-10699.3,10796.3,96.9719,9.11719e-14,86.1993,6.66086,6.05261e-06,7.76246e-05,3.80953e-27,4.11157,0.000116691
452.4,11072.0,453.053,277.796,-10715.5,10794.2,78.7114,0.0,69.6431,4.96126,4.59184e-06,5.06556e-05,8.58235e-28,4.10687,0.000116562
452.3,10885.0,452.953,92.2082,-10728.8,10792.8,63.9794,0.0,56.193,3.68402,3.47483e-06,3.28754e-05,1.90246e-28,4.10217,0.000116433
452.2,11000.0,452.853,208.355,-10739.5,10791.6,52.0975,0.0,45.2733,2.72664,2.62287e-06,2.12193e-05,4.14951e-29,4.09748,0.000116304
452.1,10949.0,452.753,158.757,-10747.7,10790.2,42.5194,0.0,36.4155,2.01106,1.97476e-06,1.36209e-05,8.90532e-30,4.09278,0.000116175
452.0,10917.0,452.6528,127.851,-10754.3,10789.1,34.8042,0.0,29.2381,1.47785,1.48299e-06,8.69554e-06,1.88048e-30,4.08808,0.000116047
451.9,11053.0,452.553,265.351,-10759.1,10787.6,28.5953,0.0,23.4299,1.08186,1.11084e-06,5.52081e-06,3.90739e-31,4.08339,0.000115918
451.8,11118.0,452.453,332.634,-10761.8,10785.4,23.6044,0.0,18.7368,0.788821,8.29932e-07,3.48598e-06,7.98826e-32,4.07869,0.00011579
451.7,11021.0,452.353,237.811,-10763.6,10783.2,19.5978,0.0,14.9509,0.572784,6.18461e-07,2.18908e-06,1.60687e-32,4.074,0.000115661
451.6,11002.0,452.253,220.561,-10765.1,10781.4,16.386,0.0,11.9025,0.414143,4.5968e-07,1.36715e-06,3.18058e-33,4.06931,0.000115533
451.5,10903.0,452.1528,122.872,-10766.3,10780.1,13.8157,0.0,9.4528,0.298129,3.40776e-07,8.4915e-07,6.19411e-34,4.06462,0.000115405
451.4,10847.0,452.053,67.5985,-10767.6,10779.4,11.7622,0.0,7.48846,0.213651,2.5197e-07,5.24528e-07,1.18632e-34,4.05993,0.000115277
451.3,10836.0,451.953,57.0744,-10768.8,10778.9,10.1247,0.0,5.91689,0.152409,1.8582e-07,3.22232e-07,2.23668e-35,4.05523,0.00011515
451.2,10924.0,451.853,145.849,-10769.3,10778.2,8.82145,0.0,4.66257,0.108212,1.36678e-07,1.96872e-07,4.1443e-36,4.05055,0.000115022
451.1,10955.0,451.753,178.085,-10769.1,10776.9,7.78641,0.0,3.66398,0.076466,1.00267e-07,1.19623e-07,7.57763e-37,4.04586,0.000114895
451.0,10889.0,451.6528,113.197,-10768.8,10775.8,6.96611,0.0,2.87106,0.0537714,7.33627e-08,7.22874e-08,1.36236e-37,4.04117,0.000114767
450.9,10910.0,451.553,135.145,-10768.5,10774.9,6.31739,0.0,2.24317,0.0376264,5.35357e-08,4.34436e-08,2.40348e-38,4.03648,0.00011464
450.8,10842.0,451.453,67.9201,-10768.3,10774.1,5.80547,0.0,1.74736,0.0261977,3.89637e-08,2.59659e-08,4.18341e-39,4.03179,0.000114513
450.7,10895.0,451.353,121.644,-10768,10773.4,5.40236,0.0,1.35699,0.0181482,2.82828e-08,1.54347e-08,7.1255e-40,4.02711,0.000114386
450.6,10979.0,451.253,206.898,-10767,10772.1,5.0856,0.0,1.05056,0.0125078,2.04752e-08,9.12445e-09,1.22397e-40,4.02242,0.000114259
450.5,10977.0,451.1528,206.475,-10765.7,10770.5,4.83717,0.0,0.810745,0.00857589,1.47834e-08,5.36453e-09,2.05398e-41,4.01774,0.000114133
450.4,10825.0,451.053,55.4753,-10764.9,10769.5,4.64268,0.0,0.623662,0.00584933,1.06454e-08,3.1367e-09,3.68226e-42,4.01306,0.000114006
450.3,10851.0,450.953,82.0,-10764.5,10769.0,4.49064,0.0,0.478181,0.00396864,7.64506e-09,1.82402e-09,3.62767e-43,4.00837,0.00011388
450.2,10769.0,450.853,0.0,-10764.6,10769.0,4.3719,0.0,0.36542,0.00267834,5.47565e-09,1.05487e-09,1.06055e-43,4.00369,0.000113753
450.1,10863.0,450.753,94.0,-10764.7,10769.0,4.27923,0.0,0.278311,0.00179787,3.9113e-09,6.0672e-10,0.0,3.99901,0.000113627
450.0,10773.0,450.6528,4.0,-10764.8,10769.0,4.20689,0.0,0.211245,0.00120034,2.78636e-09,3.4705e-10,0.0,3.99433,0.000113501