File: XPS/LG4X-result/MX-UT-0.1-3-C1s.csv
#No of rows lightened (2D detector)1(if not using 2D detector, value is 1 and can be ignored!)
raw_x,raw_y,corrected x,data-bg,sum_components,bg,sum_fit,C=C,pi-pi,pi-pi2,C-C,C-O,C_6,TiC
295.0,777.0,295.4017,46.0,-693.562,731.0,37.4384,13.1961,14.8473,0.0,0.443563,8.77304,0.0,0.178419
294.9,766.0,295.302,35.0,-692.285,731.0,38.7149,13.4417,15.672,0.0,0.452335,8.96772,0.0,0.181115
294.8,732.0,295.202,1.0,-690.92,731.0,40.0805,13.6942,16.5721,0.0,0.46137,9.16892,0.0,0.183872
294.7,739.0,295.102,8.0,-689.455,731.0,41.5453,13.9538,17.5572,0.0,0.470678,9.37694,0.0,0.186693
294.6,810.0,295.002,79.0,-687.879,731.0,43.121,14.221,18.6381,0.0,0.480272,9.59209,0.0,0.18958
294.5,765.0,294.9017,34.0,-686.179,731.0,44.8207,14.4958,19.8275,0.0,0.490163,9.81469,0.0,0.192533
294.4,731.0,294.802,0.0,-684.34,731.0,46.6596,14.7787,21.1399,0.0,0.500362,10.0451,0.0,0.195557
294.3,818.0,294.702,87.1381,-682.207,730.862,48.6548,15.07,22.5915,0.0,0.510884,10.2837,0.0,0.198652
294.2,826.0,294.602,95.4273,-679.747,730.573,50.8257,15.37,24.2013,0.0,0.521742,10.5308,0.0,0.201821
294.1,781.0,294.502,50.6587,-677.147,730.341,53.1941,15.679,25.9902,0.0,0.53295,10.7869,0.0,0.205067
294.0,771.0,294.4017,40.8036,-674.412,730.196,55.7848,15.9975,27.982,0.0,0.544524,11.0524,0.0,0.208391
293.9,760.0,294.302,29.9157,-671.459,730.084,58.6252,16.3257,30.2033,0.0,0.55648,11.3278,0.0,0.211797
293.8,748.0,294.202,17.9916,-668.263,730.008,61.7454,16.6642,32.6836,0.0,0.568834,11.6136,0.0,0.215288
293.7,774.0,294.102,44.0899,-664.731,729.91,65.1789,17.0133,35.4549,0.0,0.581605,11.9102,0.0,0.218865
293.6,747.0,294.002,17.187,-660.851,729.813,68.9616,17.3735,38.5525,0.0,0.594812,12.2183,0.0,0.222532
293.5,776.0,293.9017,46.2876,-656.58,729.712,73.1321,17.7452,42.0137,0.0,0.608474,12.5384,0.0,0.226292
293.4,789.0,293.802,59.4551,-651.814,729.545,77.7312,18.129,45.8782,0.0,0.622614,12.8712,0.0,0.230149
293.3,823.0,293.702,93.6978,-646.501,729.302,82.801,18.5254,50.1868,0.0,0.637253,13.2174,0.0,0.234104
293.2,834.0,293.602,105.013,-640.603,728.987,88.3845,18.9349,54.9814,0.0,0.652416,13.5776,0.0,0.238163
293.1,804.0,293.502,75.2982,-634.178,728.702,94.5241,19.3582,60.3028,0.0,0.668127,13.9526,0.0,0.242328
293.0,809.0,293.4017,80.5451,-627.194,728.455,101.261,19.7958,66.1906,0.0,0.684414,14.3433,0.0,0.246603
292.9,840.0,293.302,111.85,-619.518,728.15,108.632,20.2485,72.6803,0.0,0.701305,14.7505,0.0,0.250992
292.8,782.0,293.202,54.1129,-611.218,727.887,116.669,20.7168,79.8027,0.0,0.71883,15.1752,0.0,0.2555
292.7,826.0,293.102,98.3544,-602.248,727.646,125.398,21.2016,87.5808,0.0,0.737022,15.6183,0.0,0.26013
292.6,867.0,293.002,139.732,-592.435,727.268,134.834,21.7036,96.0283,0.0,0.755915,16.081,0.0,0.264887
292.5,888.0,292.9017,161.208,-581.811,726.792,144.981,22.2237,105.147,0.0,0.775546,16.5644,0.0,0.269776
292.4,898.0,292.802,171.736,-570.436,726.264,155.828,22.7627,114.925,0.0,0.795953,17.0698,0.0,0.274801
292.3,867.0,292.702,141.232,-558.418,725.768,167.35,23.3215,125.333,0.0,0.817178,17.5984,0.0,0.279969
292.2,884.0,292.602,158.707,-545.79,725.293,179.503,23.9012,136.326,0.0,0.839266,18.1518,0.0,0.285283
292.1,922.0,292.502,197.271,-532.505,724.729,192.224,24.5028,147.837,0.0,0.862264,18.7314,0.0,0.29075
292.0,919.0,292.4017,194.892,-518.68,724.108,205.428,25.1274,159.779,0.0,0.886222,19.339,0.0,0.296376
291.9,963.0,292.302,239.581,-504.408,723.419,219.012,25.7761,172.046,0.0,0.911196,19.9763,0.0,0.302166
291.8,991.0,292.202,268.385,-489.763,722.615,232.852,26.4504,184.51,0.0,0.937244,20.6454,0.0,0.308128
291.7,966.0,292.102,244.197,-474.998,721.803,246.804,27.1514,197.026,0.0,0.964428,21.3483,0.0,0.314268
291.6,1002.0,292.002,281.03,-460.259,720.97,260.711,27.8807,209.43,0.0,0.992815,22.0873,0.0,0.320594
291.5,1024.0,291.9017,303.956,-445.643,720.044,274.4,28.6398,221.546,0.0,1.02248,22.865,0.0,0.327113
291.4,1010.0,291.802,290.899,-431.411,719.101,287.69,29.4303,233.189,0.0,1.0535,23.684,0.0,0.333832
291.3,1013.0,291.702,294.827,-417.777,718.173,300.396,30.2541,244.168,0.0,1.08595,24.5473,0.0,0.34076
291.2,1038.0,291.602,320.802,-404.865,717.198,312.333,31.1129,254.295,0.0,1.11993,25.458,0.0,0.347907
291.1,1059.0,291.502,342.853,-392.822,716.147,323.324,32.0088,263.385,0.0,1.15554,26.4197,0.0,0.35528
291.0,1073.0,291.4017,357.964,-381.833,715.036,333.204,32.944,271.268,0.0,1.19288,27.4363,0.0,0.362891
290.9,1094.0,291.302,380.133,-372.042,713.867,341.825,33.9208,277.79,0.0,1.23207,28.5118,0.0,0.370749
290.8,1070.0,291.202,357.301,-363.633,712.699,349.066,34.9417,282.821,0.0,1.27323,29.6509,0.0,0.378865
290.7,1129.0,291.102,417.529,-356.64,711.471,354.831,36.0094,286.259,0.0,1.31649,30.8586,0.0,0.38725
290.6,1078.0,291.002,367.773,-351.169,710.227,359.058,37.1268,288.033,0.0,1.362,32.1404,0.0,0.395917
290.5,1054.0,290.9017,344.902,-347.378,709.098,361.72,38.2971,288.106,0.0,1.40993,33.5025,0.0,0.404877
290.4,1051.0,290.802,342.992,-345.183,708.008,362.825,39.5236,286.475,0.0,1.46044,34.9515,0.0,0.414146
290.3,1025.0,290.702,318.039,-344.542,706.961,362.419,40.8101,283.177,0.0,1.51373,36.4949,0.0,0.423737
290.2,1037.0,290.602,331.068,-345.35,705.932,360.582,42.1604,278.277,0.0,1.57,38.1408,0.0,0.433664
290.1,1065.0,290.502,360.163,-347.409,704.837,357.428,43.5788,271.877,0.0,1.62949,39.8984,0.0,0.443945
290.0,1056.0,290.4017,352.292,-350.609,703.708,353.099,45.0701,264.104,0.0,1.69244,41.7778,0.0,0.454596
289.9,995.0,290.302,292.313,-354.923,702.687,347.765,46.6393,255.11,0.0,1.75913,43.7902,0.0,0.465634
289.8,1025.0,290.202,323.288,-360.1,701.712,341.612,48.2919,245.065,0.0,1.82986,45.9481,0.0,0.47708
289.7,1038.0,290.102,337.335,-365.821,700.665,334.844,50.034,234.151,0.0,1.90497,48.2657,0.0,0.488952
289.6,1037.0,290.002,337.404,-371.923,699.596,327.673,51.872,222.557,0.0,1.98482,50.7585,0.0,0.501274
289.5,977.0,289.9017,278.379,-378.306,698.621,320.315,53.8133,210.473,0.0,2.06984,53.4443,0.0,0.514067
289.4,1001.0,289.802,303.301,-384.716,697.699,312.983,55.8656,198.087,0.0,2.16048,56.3427,0.0,0.527356
289.3,990.0,289.702,293.246,-390.867,696.754,305.887,58.0375,185.575,0.0,2.25725,59.4762,0.0,0.541168
289.2,972.0,289.602,276.148,-396.627,695.852,299.225,60.3386,173.1,0.0,2.36071,62.8698,0.0,0.555529
289.1,1001.0,289.502,306.071,-401.745,694.929,293.184,62.7792,160.811,0.0,2.47151,66.5522,0.0,0.570469
289.0,992.0,289.4017,298.028,-406.033,693.972,287.939,65.3707,148.836,0.0,2.59036,70.5556,0.0,0.586021
288.9,985.0,289.302,291.962,-409.389,693.038,283.648,68.1258,137.285,0.0,2.71806,74.917,0.0,0.602217
288.8,945.0,289.202,252.825,-411.717,692.175,280.457,71.0585,126.246,0.0,2.85554,79.6781,0.0,0.619094
288.7,970.0,289.102,278.668,-412.835,691.332,278.497,74.1841,115.786,0.0,3.00381,84.887,0.0,0.63669
288.6,975.0,289.002,284.56,-412.55,690.44,277.89,77.5199,105.953,0.0,3.16405,90.5983,0.0,0.655047
288.5,962.0,288.9017,272.442,-410.809,689.558,278.749,81.0848,96.7775,0.0,3.33761,96.8749,0.0,0.67421
288.4,989.0,288.802,300.35,-407.468,688.65,281.182,84.9,88.2728,0.0,3.52601,103.789,0.0,0.694226
288.3,967.0,288.702,279.268,-402.435,687.732,285.297,88.989,80.4382,0.0,3.73102,111.423,0.0,0.715147
288.2,1044.0,288.602,357.277,-395.519,686.723,291.205,93.3781,73.2608,0.0,3.95468,119.874,0.0,0.737029
288.1,1052.0,288.502,366.423,-386.552,685.577,299.025,98.0968,66.7184,0.0,4.19935,129.251,0.0,0.759929
288.0,1008.0,288.4017,323.516,-375.593,684.484,308.891,103.178,60.7808,0.0,4.46779,139.68,0.0,0.783915
287.9,1055.0,288.302,371.618,-362.43,683.382,320.952,108.659,55.4127,0.0,4.76323,151.309,0.0,0.809053
287.8,1083.0,288.202,400.841,-346.775,682.159,335.384,114.58,50.575,0.0,5.08948,164.304,0.0,0.835421
287.7,1052.0,288.102,371.064,-328.548,680.936,352.388,120.99,46.2266,0.0,5.45107,178.857,0.0,0.863099
287.6,1079.0,288.002,399.285,-307.517,679.715,372.199,127.941,42.326,0.0,5.85341,195.186,0.0,0.892176
287.5,1116.0,287.9017,437.611,-283.303,678.389,395.086,135.494,38.8321,0.0,6.30301,213.535,0.0,0.922747
287.4,1153.0,287.802,476.058,-255.584,676.942,421.358,143.716,35.7051,0.0,6.80775,234.174,0.0,0.954917
287.3,1168.0,287.702,492.593,-224.051,675.407,451.356,152.686,32.9074,0.0,7.37732,257.397,0.0,0.988799
287.2,1178.0,287.602,504.172,-188.378,673.828,485.45,162.493,30.4037,0.0,8.02367,283.505,0.0,1.02452
287.1,1252.0,287.502,579.889,-148.09,672.111,524.021,173.241,28.1615,0.0,8.76179,312.795,0.0,1.0622
287.0,1254.0,287.4017,583.733,-102.836,670.267,567.431,185.047,26.1513,0.0,9.61069,345.52,0.0,1.10201
286.9,1250.0,287.302,581.579,-52.4422,668.421,615.979,198.051,24.3461,0.0,10.5949,381.843,0.0,1.1441
286.8,1329.0,287.202,662.55,3.37267,666.45,669.822,212.413,22.722,0.0,11.7465,421.753,0.0,1.18864
286.7,1344.0,287.102,679.677,64.5604,664.323,728.884,228.323,21.2576,0.0,13.1089,464.959,0.0,1.23584
286.6,1449.0,287.002,787,130.722,662,792.721,246.005,19.9341,0.0,14.7424,510.754,0.0,1.28591
286.5,1563.0,286.9017,903.679,201.081,659.321,860.403,265.726,18.7348,0.0,16.7342,557.868,0.0,1.33908
286.4,1590.0,286.802,933.59,274.004,656.41,930.415,287.809,17.6452,0.0,19.2169,604.348,0.0,1.39562
286.3,1620.0,286.702,966.6,347.297,653.4,1000.7,312.645,16.6524,0.0,22.4032,647.54,0.0,1.45581
286.2,1649.0,286.602,998.714,418.606,650.286,1068.89,340.712,15.7455,0.0,26.6502,684.264,0.0,1.51999
286.1,1731.0,286.502,1084.01,485.918,646.986,1132.9,372.606,14.9147,0.0,32.5743,711.221,0.0,1.58851
286.0,1812.0,286.4017,1168.58,548.332,643.418,1191.75,409.074,14.1515,0.0,41.242,725.621,0.0,1.66176
285.9,1906.0,286.302,1266.44,606.989,639.56,1246.55,451.069,13.4487,0.0,54.4536,725.838,0.0,1.7402
285.8,1962.0,286.202,1326.55,665.939,635.452,1301.39,499.82,12.7999,0.0,75.0993,711.847,0.0,1.82433
285.7,1944.0,286.102,1312.73,732.505,631.27,1363.78,556.947,12.1994,0.0,107.484,685.231,0.0,1.91471
285.6,2124.0,286.002,1497.18,817.602,626.819,1444.42,624.618,11.6424,0.0,157.395,648.753,0.0,2.01198
285.5,2178.0,285.9017,1556.02,934.354,621.981,1556.34,705.803,11.1246,0.0,231.585,605.706,0.0,2.11685
285.4,2305.0,285.802,1688.16,1096.31,616.842,1713.15,804.666,10.6423,0.0,336.33,559.283,0.0,2.23014
285.3,2522.0,285.702,1910.86,1315.77,611.14,1926.91,927.218,10.1921,0.0,474.995,512.157,0.0,2.35277
285.2,2797.0,285.602,2192.36,1601.39,604.639,2206.03,1082.43,9.77117,0.0,645.041,466.3,0.0,2.4858
285.1,3084.0,285.502,2486.77,1957.58,597.226,2554.8,1284.23,9.37687,0.0,835.559,423.003,0.0,2.63044
285.0,3345.0,285.4017,2756.08,2387.98,588.92,2976.9,1555.35,9.00692,0.0,1026.77,382.989,0.0,2.78808
284.9,3971.0,285.302,3391.82,2906.63,579.179,3485.81,1935.04,8.65927,0.0,1192.59,346.557,0.0,2.96033
284.8,4586.0,285.202,4018.56,3559.67,567.439,4127.11,2495.61,8.3321,0.0,1306.3,313.725,0.0,3.14905
284.7,5786.0,285.102,5233.22,4466.53,552.781,5019.31,3375.93,8.02376,0.0,1347.67,284.336,0.0,3.3564
284.6,7339.0,285.002,6805.29,5878.35,533.709,6412.06,4833.63,7.7328,0.0,1308.98,258.136,0.0,3.58493
284.5,9569.0,284.9017,9060.43,8191.69,508.573,8700.27,7256.69,7.45788,0.0,1197.45,234.832,0.0,3.83762
284.4,12716.0,284.802,12241.2,11720,474.825,12194.9,10936.4,7.1978,0.0,1032.98,214.119,0.0,4.11799
284.3,16689.0,284.702,16259.3,16057.5,429.671,16487.2,15437.9,6.95149,0.0,842.184,195.705,0.0,4.43025
284.2,20094.0,284.602,19721.3,19561.6,372.667,19934.3,19092.2,6.71795,0.0,651.271,179.32,0.0,4.77941
284.1,20745.0,284.502,20436,20147,309.045,20456.1,19799.4,6.4963,0.0,480.298,164.717,0.0,5.17154
284.0,18010.0,284.4017,17761.5,17215.6,248.529,17464.2,16960.1,6.28572,0.0,340.482,151.678,0.0,5.61397
283.9,12891.0,284.302,12690.7,12354.4,200.284,12554.7,12167.9,6.08546,0.0,234.614,140.011,0.0,6.11569
283.8,8055.0,284.202,7887.32,7764.12,167.682,7931.8,7630.19,5.89485,0.0,159.48,129.547,0.0,6.68779
283.7,4594.0,284.102,4445.86,4561.63,148.142,4709.77,4467.72,5.71325,0.0,108.856,120.141,0.0,7.34407
283.6,2738.0,284.002,2601.02,2682.79,136.978,2819.77,2618.48,5.5401,0.0,75.9788,111.665,0.0,8.10189
283.5,1805.0,283.9017,1674.8,1649.25,130.204,1779.46,1606.08,5.37487,0.0,55.0134,104.007,0.0,8.98331
283.4,1346.0,283.802,1220.38,1069.77,125.617,1195.38,1041.47,5.21708,0.0,41.6037,97.0726,0.0,10.0168
283.3,995.0,283.702,872.699,725.232,122.301,847.533,707.634,5.06626,0.0,32.8162,90.778,0.0,11.2393
283.2,786.0,283.602,666.137,507.399,119.863,627.261,497.769,4.92202,0.0,26.8196,85.0507,0.0,12.6999
283.1,614.0,283.502,495.978,362.693,118.022,480.715,359.111,4.78396,0.0,22.5276,79.8276,0.0,14.4647
283.0,525.0,283.4017,408.411,263.019,116.589,379.608,263.966,4.65173,0.0,19.3121,75.0538,0.0,16.6243
282.9,449.0,283.302,333.587,192.679,115.413,308.092,196.771,4.525,0.0,16.8096,70.6811,0.0,19.3057
282.8,419.0,283.202,304.598,142.412,114.402,256.814,148.249,4.40347,0.0,14.8036,66.6674,0.0,22.691
282.7,408.0,283.102,294.547,106.615,113.453,220.068,112.597,4.28685,0.0,13.1596,62.9759,0.0,27.0493
282.6,356.0,283.002,243.399,81.7679,112.601,194.369,86.04,4.17487,0.0,11.7891,59.574,0.0,32.7907
282.5,327.0,282.9017,215.126,65.8649,111.874,177.739,66.0439,4.06729,0.0,10.6311,56.4332,0.0,40.5638
282.4,301.0,282.802,189.767,58.1997,111.233,169.433,50.8593,3.96388,0.0,9.64177,53.528,0.0,51.4396
282.3,329.0,282.702,218.414,59.4282,110.586,170.014,39.2518,3.86441,0.0,8.78872,50.8362,0.0,67.2732
282.2,334.0,282.602,224.115,72.0306,109.885,181.916,30.3335,3.7687,0.0,8.04716,48.3378,0.0,91.4285
282.1,351.0,282.502,241.853,101.527,109.147,210.674,23.4552,3.67654,0.0,7.39795,46.0153,0.0,130.129
282.0,381.0,282.4017,272.668,158.144,108.332,266.476,18.136,3.58777,0.0,6.82599,43.8527,0.0,194.074
281.9,434.0,282.302,326.618,254.504,107.382,361.886,14.0151,3.50222,0.0,6.31921,41.8361,0.0,296.214
281.8,588.0,282.202,481.899,389.019,106.101,495.12,10.8192,3.41973,0.0,5.86788,39.9529,0.0,435.06
281.7,710.0,282.102,605.622,516.712,104.378,621.09,8.34008,3.34015,0.0,5.46405,38.1918,0.0,565.754
281.6,748.0,282.002,645.604,558.889,102.396,661.285,6.41743,3.26336,0.0,5.10117,36.5427,0.0,609.961
281.5,707.0,281.9017,606.588,482.193,100.412,582.605,4.92754,3.18921,0.0,4.77379,34.9964,0.0,534.718
281.4,608.0,281.802,509.356,340.567,98.6441,439.211,3.77448,3.11759,0.0,4.47737,33.5447,0.0,394.297
281.3,393.0,281.702,295.631,208.41,97.3688,305.778,2.88357,3.04838,0.0,4.20807,32.1801,0.0,263.458
281.2,295.0,281.602,198.414,116.393,96.5861,212.979,2.19662,2.98147,0.0,3.96264,30.8959,0.0,172.942
281.1,224.0,281.502,127.931,59.3083,96.0691,155.377,1.66817,2.91677,0.0,3.73831,29.6861,0.0,117.368
281.0,194.0,281.4017,98.2893,24.0632,95.7107,119.774,1.26271,2.85417,0.0,3.5327,28.545,0.0,83.5793
280.9,184.0,281.302,88.5854,1.35432,95.4146,96.7689,0.952525,2.79359,0.0,3.34376,27.4676,0.0,62.2114
280.8,173.0,281.202,77.8491,-14.0681,95.1509,81.0828,0.715963,2.73493,0.0,3.16973,26.4494,0.0,48.0127
280.7,149.0,281.102,54.0581,-25.0883,94.9419,69.8536,0.536148,2.67812,0.0,3.00905,25.4861,0.0,38.1442
280.6,132.0,281.002,37.2027,-33.3184,94.7973,61.479,0.399948,2.62308,0.0,2.86039,24.5739,0.0,31.0217
280.5,133.0,280.9017,38.3223,-39.6611,94.6777,55.0166,0.297163,2.56973,0.0,2.72257,23.7092,0.0,25.7179
280.4,140.0,280.802,45.455,-44.6593,94.545,49.8857,0.219894,2.51801,0.0,2.59455,22.889,0.0,21.6642
280.3,125.0,280.702,30.5755,-48.7116,94.4245,45.7129,0.162037,2.46785,0.0,2.47541,22.1101,0.0,18.4975
280.2,133.0,280.602,38.6852,-52.0655,94.3148,42.2492,0.118893,2.41918,0.0,2.36435,21.3699,0.0,15.9769
280.1,118.0,280.502,23.7842,-54.8922,94.2158,39.3236,0.0868564,2.37195,0.0,2.26065,20.666,0.0,13.9381
280.0,117.0,280.4017,22.8581,-57.3272,94.1419,36.8148,0.063171,2.32611,0.0,2.16367,19.9959,0.0,12.2659
279.9,121.0,280.302,26.937,-59.4279,94.063,34.6351,0.0457372,2.28159,0.0,2.07283,19.3577,0.0,10.8773
279.8,135.0,280.202,41.0447,-61.2354,93.9553,32.7199,0.0329631,2.23834,0.0,1.98763,18.7492,0.0,9.7118
279.7,131.0,280.102,37.1686,-62.8111,93.8314,31.0203,0.0236463,2.19633,0.0,1.9076,18.1688,0.0,8.72399
279.6,120.0,280.002,26.2691,-64.232,93.7309,29.4989,0.016883,2.15549,0.0,1.83234,17.6146,0.0,7.87953
279.5,126.0,279.9017,32.362,-65.5115,93.638,28.1265,0.0119968,2.11579,0.0,1.76146,17.0853,0.0,7.15197
279.4,131.0,279.802,37.4726,-66.6471,93.5274,26.8803,0.0084836,2.07719,0.0,1.69464,16.5793,0.0,6.5207
279.3,115.0,279.702,21.5662,-67.692,93.4338,25.7419,0.00597004,2.03964,0.0,1.63157,16.0952,0.0,5.96945
279.2,114.0,279.602,20.633,-68.6705,93.367,24.6964,0.00418055,2.00311,0.0,1.57197,15.6319,0.0,5.48525
279.1,126.0,279.502,32.7176,-69.5505,93.2824,23.7319,0.00291293,1.96755,0.0,1.51559,15.1882,0.0,5.05765
279.0,135.0,279.4017,41.8357,-70.326,93.1643,22.8383,0.00201952,1.93294,0.0,1.46221,14.763,0.0,4.67816
278.9,120.0,279.302,26.9446,-71.048,93.0554,22.0074,0.00139307,1.89925,0.0,1.4116,14.3553,0.0,4.33984
278.8,101.0,279.202,8.0,-71.768,93.0,21.232,0.000956054,1.86643,0.0,1.36359,13.9641,0.0,4.03692
278.7,93.0,279.102,0.0,-72.4936,93.0,20.5064,0.000652778,1.83446,0.0,1.318,13.5886,0.0,3.76465
278.6,99.0,279.002,6.0,-73.1746,93.0,19.8254,0.00044341,1.80331,0.0,1.27466,13.228,0.0,3.51902
278.5,111.0,278.9017,18.0,-73.8152,93.0,19.1848,0.000299633,1.77295,0.0,1.23343,12.8814,0.0,3.29666
278.4,104.0,278.802,11.0,-74.4193,93.0,18.5807,0.00020142,1.74335,0.0,1.19418,12.5482,0.0,3.09473
278.3,113.0,278.702,20.0,-74.99,93.0,18.01,0.000134689,1.7145,0.0,1.15678,12.2277,0.0,2.9108
278.2,112.0,278.602,19.0,-75.5303,93.0,17.4697,8.95918e-05,1.68636,0.0,1.12112,11.9193,0.0,2.7428
278.1,119.0,278.502,26.0,-76.0427,93.0,16.9573,5.92785e-05,1.65891,0.0,1.08708,11.6223,0.0,2.58893
278.0,126.0,278.4017,33.0,-76.5294,93.0,16.4706,3.90129e-05,1.63213,0.0,1.05457,11.3362,0.0,2.44765
277.9,103.0,278.302,10.0,-76.9923,93.0,16.0077,2.55383e-05,1.606,0.0,1.02351,11.0606,0.0,2.31763
277.8,102.0,278.202,9.0,-77.4332,93.0,15.5668,1.66279e-05,1.58049,0.0,0.993802,10.7948,0.0,2.1977
277.7,109.0,278.102,16.0,-77.8538,93.0,15.1462,1.0768e-05,1.55559,0.0,0.965373,10.5384,0.0,2.08684
277.6,102.0,278.002,9.0,-78.2554,93.0,14.7446,6.93548e-06,1.53127,0.0,0.938149,10.291,0.0,1.98416
277.5,97.0,277.9017,4.0,-78.6394,93.0,14.3606,4.44275e-06,1.50753,0.0,0.912064,10.0521,0.0,1.88888
277.4,101.0,277.802,8.0,-79.0068,93.0,13.9932,2.83044e-06,1.48433,0.0,0.887055,9.82149,0.0,1.8003
277.3,98.0,277.702,5.0,-79.3588,93.0,13.6412,1.79339e-06,1.46167,0.0,0.863062,9.59866,0.0,1.71781