File: XPS/LG4X-result/MX-UT-0.5-2-C1s.csv
#No of rows lightened (2D detector)1(if not using 2D detector, value is 1 and can be ignored!)
raw_x,raw_y,corrected x,data-bg,sum_components,bg,sum_fit,bg_shirley_,C=C,pi-pi*,pi-pi*2,C-C,C-O,C_6,TiC
294.7,745.0,295.353,155.602,155.277,589.398,744.675,589.398,9.33077,43.9169,78.8701,17.4034,5.6243,0.0,0.131585
294.6,733.0,295.253,145.14,166.047,587.86,753.906,587.86,9.50525,46.1466,86.7574,17.7446,5.75906,0.0,0.133578
294.5,747.0,295.1528,160.654,177.328,586.346,763.674,586.346,9.68467,48.5533,94.9597,18.0959,5.89869,0.0,0.135617
294.4,772.0,295.053,187.197,188.839,584.803,773.642,584.803,9.86922,51.1554,103.175,18.4577,6.04344,0.0,0.137704
294.3,787.0,294.953,203.791,200.175,583.209,783.384,583.209,10.0591,53.9734,110.979,18.8305,6.19356,0.0,0.139839
294.2,801.0,294.853,219.417,210.828,581.583,792.412,581.583,10.2545,57.0303,117.838,19.2146,6.3493,0.0,0.142023
294.1,845.0,294.753,265.071,220.244,579.929,800.173,579.929,10.4557,60.3514,123.171,19.6105,6.51096,0.0,0.14426
294.0,795.0,294.6528,216.816,227.922,578.184,806.106,578.184,10.6628,63.9651,126.45,20.0187,6.67884,0.0,0.14655
293.9,828.0,294.553,251.458,233.532,576.542,810.074,576.542,10.8762,67.9022,127.312,20.4398,6.85326,0.0,0.148894
293.8,824.0,294.453,249.168,237.01,574.832,811.842,574.832,11.096,72.1968,125.657,20.8743,7.03456,0.0,0.151296
293.7,783.0,294.353,209.87,238.583,573.13,811.714,573.13,11.3226,76.8861,121.675,21.3227,7.22311,0.0,0.153756
293.6,792.0,294.253,220.487,238.722,571.513,810.235,571.513,11.5561,82.0103,115.794,21.7856,7.41929,0.0,0.156276
293.5,782.0,294.1528,212.122,238.028,569.878,807.906,569.878,11.797,87.6124,108.573,22.2637,7.62352,0.0,0.158859
293.4,783.0,294.053,214.737,237.124,568.263,805.387,568.263,12.0455,93.7383,100.585,22.7577,7.83624,0.0,0.161507
293.3,805.0,293.953,238.354,236.562,566.646,803.208,566.646,12.302,100.436,92.3331,23.2682,8.05793,0.0,0.164221
293.2,821.0,293.853,256.017,236.78,564.983,801.763,564.983,12.5667,107.757,84.204,23.7961,8.2891,0.0,0.167004
293.1,803.0,293.753,239.712,238.094,563.288,801.381,563.288,12.84,115.75,76.461,24.342,8.53028,0.0,0.169859
293.0,804.0,293.6528,242.371,240.713,561.629,802.342,561.629,13.1224,124.469,69.2603,24.9068,8.78206,0.0,0.172788
292.9,823.0,293.553,263.031,244.764,559.969,804.732,559.969,13.4142,133.961,62.6759,25.4914,9.04507,0.0,0.175793
292.8,782.0,293.453,223.731,250.312,558.269,808.581,558.269,13.7158,144.275,56.7248,26.0968,9.31997,0.0,0.178877
292.7,817.0,293.353,260.346,257.383,556.654,814.037,556.654,14.0278,155.454,51.3876,26.7238,9.6075,0.0,0.182043
292.6,837.0,293.253,282.033,265.976,554.967,820.943,554.967,14.3505,167.534,46.6243,27.3736,9.90842,0.0,0.185293
292.5,829.0,293.1528,275.762,276.071,553.238,829.309,553.238,14.6844,180.542,42.3851,28.0473,10.2236,0.0,0.188632
292.4,854.0,293.053,302.474,287.633,551.526,839.16,551.526,15.0302,194.494,38.6169,28.7461,10.5539,0.0,0.192062
292.3,881.0,292.953,331.237,300.617,549.763,850.38,549.763,15.3884,209.394,35.2675,29.4711,10.9003,0.0,0.195586
292.2,913.0,292.853,365.057,314.963,547.943,862.906,547.943,15.7594,225.228,32.2882,30.2238,11.2639,0.0,0.199208
292.1,859.0,292.753,312.942,330.596,546.058,876.654,546.058,16.1441,241.963,29.6344,31.0055,11.6458,0.0,0.202931
292.0,922.0,292.6528,377.716,347.428,544.284,891.711,544.284,16.5431,259.547,27.2665,31.8177,12.0472,0.0,0.20676
291.9,940.0,292.553,397.621,365.35,542.379,907.73,542.379,16.957,277.902,25.1492,32.6621,12.4695,0.0,0.210698
291.8,913.0,292.453,372.562,384.236,540.438,924.674,540.438,17.3867,296.928,23.2518,33.5403,12.9142,0.0,0.21475
291.7,918.0,292.353,379.447,403.935,538.553,942.488,538.553,17.8329,316.499,21.5475,34.4542,13.3828,0.0,0.21892
291.6,959.0,292.253,422.343,424.278,536.657,960.934,536.657,18.2965,336.462,20.0128,35.4057,13.8771,0.0,0.223213
291.5,931.0,292.1528,396.324,445.072,534.676,979.748,534.676,18.7785,356.642,18.6276,36.3969,14.399,0.0,0.227633
291.4,996.0,292.053,463.246,466.105,532.754,998.859,532.754,19.2797,376.839,17.3742,37.4301,14.9504,0.0,0.232186
291.3,1036.0,291.953,505.303,487.148,530.697,1017.84,530.697,19.8013,396.832,16.2373,38.5075,15.5337,0.0,0.236877
291.2,1077.0,291.853,548.443,507.956,528.557,1036.51,528.557,20.3444,416.383,15.2036,39.6318,16.1513,0.0,0.241711
291.1,1082.0,291.753,555.667,528.274,526.333,1054.61,526.333,20.9102,435.244,14.2617,40.8056,16.8059,0.0,0.246695
291.0,1078.0,291.6528,553.902,547.843,524.098,1071.94,524.098,21.4998,453.157,13.4014,42.032,17.5005,0.0,0.251835
290.9,1146.0,291.553,624.128,566.403,521.872,1088.28,521.872,22.1148,469.865,12.6139,43.3141,18.2384,0.0,0.257137
290.8,1060.0,291.453,540.495,583.704,519.505,1103.21,519.505,22.7566,485.115,11.8916,44.6552,19.0231,0.0,0.262609
290.7,1111.0,291.353,593.684,599.507,517.316,1116.82,517.316,23.4268,498.667,11.2277,46.0591,19.8587,0.0,0.268257
290.6,1128.0,291.253,612.978,613.597,515.022,1128.62,515.022,24.127,510.3,10.6163,47.5296,20.7495,0.0,0.274089
290.5,1132.0,291.1528,619.308,625.783,512.692,1138.48,512.692,24.8591,519.82,10.0522,49.071,21.7004,0.0,0.280114
290.4,1156.0,291.053,645.646,635.911,510.354,1146.27,510.354,25.625,527.064,9.53064,50.6879,22.7169,0.0,0.286339
290.3,1121.0,290.953,613.033,643.863,507.967,1151.83,507.967,26.427,531.905,9.04769,52.3853,23.8049,0.0,0.292774
290.2,1152.0,290.853,646.348,649.564,505.652,1155.22,505.652,27.2672,534.258,8.5997,54.1684,24.9712,0.0,0.299429
290.1,1172.0,290.753,668.727,652.985,503.273,1156.26,503.273,28.1481,534.08,8.18344,56.0432,26.2233,0.0,0.306313
290.0,1152.0,290.6528,651.148,654.143,500.852,1155,500.852,29.0725,531.376,7.79607,58.016,27.5695,0.0,0.313438
289.9,1103.0,290.553,604.527,653.104,498.473,1151.58,498.473,30.0432,526.192,7.43502,60.0936,29.0193,0.0,0.320814
289.8,1120.0,290.453,623.805,649.978,496.195,1146.17,496.195,31.0634,518.621,7.098,62.2835,30.5832,0.0,0.328454
289.7,1103.0,290.353,609.118,644.917,493.882,1138.8,493.882,32.1364,508.795,6.78298,64.5938,32.2732,0.0,0.336369
289.6,1103.0,290.253,611.396,638.115,491.604,1129.72,491.604,33.2662,496.88,6.48812,67.0334,34.1027,0.0,0.344575
289.5,1070.0,290.1528,580.674,629.797,489.326,1119.12,489.326,34.4565,483.077,6.21176,69.612,36.0868,0.0,0.353085
289.4,1031.0,290.053,543.883,620.217,487.117,1107.33,487.117,35.712,467.608,5.95241,72.3402,38.2429,0.0,0.361914
289.3,1040.0,289.953,555.013,609.654,484.987,1094.64,484.987,37.0375,450.716,5.70872,75.2296,40.5906,0.0,0.371078
289.2,1031.0,289.853,548.16,598.398,482.84,1081.24,482.84,38.4382,432.655,5.47949,78.2931,43.1521,0.0,0.380595
289.1,1053.0,289.753,572.29,586.753,480.71,1067.46,480.71,39.92,413.682,5.26359,81.5445,45.9529,0.0,0.390483
289.0,1051.0,289.6528,572.464,575.025,478.536,1053.56,478.536,41.4893,394.054,5.06004,84.9994,49.0221,0.0,0.400761
288.9,1086.0,289.553,609.635,563.519,476.365,1039.88,476.365,43.153,374.018,4.86793,88.6747,52.3932,0.0,0.411451
288.8,1046.0,289.453,571.878,552.533,474.122,1026.66,474.122,44.919,353.811,4.68641,92.5893,56.1045,0.0,0.422575
288.7,980.0,289.353,508.038,542.359,471.962,1014.32,471.962,46.7957,333.65,4.51474,96.764,60.2,0.0,0.434156
288.6,996.0,289.253,526.062,533.275,469.938,1003.21,469.938,48.7928,313.731,4.35223,101.222,64.7304,0.0,0.446219
288.5,1017.0,289.1528,549.119,525.549,467.881,993.43,467.881,50.9206,294.228,4.19824,105.989,69.7544,0.0,0.458793
288.4,1016.0,289.053,550.219,519.436,465.781,985.217,465.781,53.1909,275.289,4.05219,111.093,75.3391,0.0,0.471906
288.3,1018.0,288.953,554.317,515.18,463.683,978.863,463.683,55.6167,257.037,3.91356,116.566,81.5622,0.0,0.48559
288.2,985.0,288.853,523.42,513.018,461.58,974.598,461.58,58.2125,239.568,3.78185,122.443,88.5127,0.0,0.499877
288.1,1016.0,288.753,556.454,513.18,459.546,972.727,459.546,60.9947,222.956,3.65662,128.765,96.2928,0.0,0.514805
288.0,1014.0,288.6528,556.552,515.896,457.448,973.344,457.448,63.9816,207.252,3.53744,135.577,105.018,0.0,0.530412
287.9,1046.0,288.553,590.646,521.396,455.354,976.749,455.354,67.1937,192.484,3.42395,142.927,114.82,0.0,0.54674
287.8,1045.0,288.453,591.807,529.916,453.193,983.109,453.193,70.6545,178.664,3.31579,150.873,125.844,0.0,0.563834
287.7,1060.0,288.353,608.965,541.699,451.035,992.735,451.035,74.3901,165.787,3.21263,159.479,138.248,0.0,0.581743
287.6,1087.0,288.253,638.154,556.997,448.846,1005.84,448.846,78.4306,153.836,3.11417,168.817,152.198,0.0,0.600519
287.5,1121.0,288.1528,674.399,576.06,446.601,1022.66,446.601,82.8102,142.78,3.02013,178.969,167.86,0.0,0.620219
287.4,1056.0,288.053,611.714,599.134,444.286,1043.42,444.286,87.568,132.584,2.93026,190.028,185.382,0.0,0.640906
287.3,1087.0,287.953,644.895,626.429,442.105,1068.53,442.105,92.7489,123.203,2.84431,202.101,204.87,0.0,0.662645
287.2,1106.0,287.853,666.14,658.097,439.86,1097.96,439.86,98.4048,114.589,2.76206,215.308,226.347,0.0,0.68551
287.1,1110.0,287.753,672.424,694.171,437.576,1131.75,437.576,104.596,106.693,2.6833,229.79,249.7,0.0,0.709581
287.0,1179.0,287.6528,743.716,734.506,435.284,1169.79,435.284,111.391,99.4624,2.60784,245.704,274.606,0.0,0.734942
286.9,1159.0,287.553,726.151,778.704,432.849,1211.55,432.849,118.874,92.8474,2.5355,263.233,300.452,0.0,0.761688
286.8,1207.0,287.453,776.544,826.044,430.456,1256.5,430.456,127.138,86.7976,2.4661,282.589,326.263,0.0,0.789922
286.7,1241.0,287.353,813.037,875.467,427.963,1303.43,427.963,136.299,81.2651,2.3995,304.013,350.671,0.0,0.819757
286.6,1279.0,287.253,853.6,925.647,425.4,1351.05,425.4,146.489,76.2044,2.33555,327.784,371.983,0.0,0.851316
286.5,1293.0,287.1528,870.242,975.194,422.758,1397.95,422.758,157.871,71.5727,2.2741,354.224,388.367,0.0,0.884734
286.4,1404.0,287.053,983.912,1022.98,420.088,1443.07,420.088,170.636,67.3303,2.21504,383.703,398.179,0.0,0.92016
286.3,1497.0,286.953,1079.81,1068.55,417.189,1485.74,417.189,185.02,63.4404,2.15823,416.644,400.33,0.0,0.957759
286.2,1501.0,286.853,1086.9,1112.38,414.097,1526.48,414.097,201.305,59.8695,2.10357,453.535,394.569,0.0,0.997712
286.1,1597.0,286.753,1186,1156,410.997,1567,410.997,219.84,56.587,2.05094,494.925,381.556,0.0,1.04022
286.0,1628.0,286.6528,1220.3,1201.82,407.699,1609.52,407.699,241.055,53.565,2.00026,541.436,362.681,0.0,1.08551
285.9,1667.0,286.553,1262.66,1252.82,404.337,1657.16,404.337,265.484,50.7786,1.95142,593.753,339.72,0.0,1.13382
285.8,1760.0,286.453,1359.11,1312.18,400.894,1713.08,400.894,293.799,48.2051,1.90435,652.615,314.473,0.0,1.18543
285.7,1773.0,286.353,1375.74,1383.06,397.259,1780.32,397.259,326.846,45.8242,1.85894,718.793,288.499,0.0,1.24066
285.6,1963.0,286.253,1569.4,1468.47,393.598,1862.07,393.598,365.713,43.6178,1.81514,793.038,262.988,0.0,1.29984
285.5,1907.0,286.1528,1517.46,1571.25,389.544,1960.79,389.544,411.807,41.5696,1.77285,875.995,238.739,0.0,1.36336
285.4,2098.0,286.053,1712.39,1694.11,385.605,2079.72,385.605,466.982,39.6651,1.73202,968.079,216.224,0.0,1.43165
285.3,2190.0,285.953,1808.73,1839.74,381.273,2221.02,381.273,533.729,37.8912,1.69258,1069.27,195.658,0.0,1.50522
285.2,2341.0,285.853,1964.25,2010.87,376.75,2387.62,376.75,615.474,36.2362,1.65447,1178.84,177.083,0.0,1.58461
285.1,2492.0,285.753,2120.08,2210.49,371.915,2582.41,371.915,717.076,34.6897,1.61762,1295,160.433,0.0,1.67047
285.0,2685.0,285.6528,2318.23,2442.42,366.769,2809.19,366.769,845.692,33.2424,1.58199,1414.56,145.578,0.0,1.7635
284.9,2917.0,285.553,2555.78,2712.61,361.224,3073.83,361.224,1012.37,31.8859,1.54751,1532.57,132.36,0.0,1.86454
284.8,3365.0,285.453,3009.8,3032.33,355.199,3387.53,355.199,1235.28,30.6127,1.51415,1642.33,120.612,0.0,1.97454
284.7,3788.0,285.353,3439.75,3425.56,348.25,3773.81,348.25,1546.62,29.416,1.48185,1735.78,110.169,0.0,2.09457
284.6,4275.0,285.253,3934.57,3945.87,340.427,4286.29,340.427,2008.48,28.2896,1.45056,1804.55,100.879,0.0,2.22592
284.5,5145.0,285.1528,4813.4,4711.97,331.598,5043.57,331.598,2746.82,27.2281,1.42026,1841.53,92.6039,0.0,2.37004
284.4,6515.0,285.053,6194.03,5963.53,320.973,6284.5,320.973,4005.61,26.2266,1.39089,1842.55,85.2189,0.0,2.52865
284.3,8704.0,284.953,8396.48,8080.6,307.518,8388.12,307.518,6165.13,25.2804,1.36242,1807.51,78.6149,0.0,2.70377
284.2,11668.0,284.853,11378.5,11390.8,289.542,11680.4,289.542,9549.16,24.3856,1.33481,1740.36,72.6958,0.0,2.89778
284.1,15457.0,284.753,15191.6,15619.4,265.445,15884.9,265.445,13876,23.5384,1.30803,1648.08,67.378,0.0,3.11349
284.0,19016.0,284.6528,18782.5,19376.6,233.523,19610.2,233.523,17747.7,22.7355,1.28204,1539.01,62.5889,0.0,3.35428
283.9,21076.0,284.553,20881.7,20654.8,194.251,20849.1,194.251,19148.4,21.9737,1.25682,1421.26,58.2652,0.0,3.62421
283.8,18906.0,284.453,18755.3,18454.8,150.725,18605.5,150.725,17072.4,21.2502,1.23234,1301.65,54.3524,0.0,3.92819
283.7,14300.0,284.353,14188.3,13824.5,111.68,13936.2,111.68,12562.5,20.5625,1.20856,1185.19,50.8027,0.0,4.27222
283.6,9016.0,284.253,8933.85,8915.95,82.1478,8998.09,82.1478,7767.42,19.9082,1.18546,1075.19,47.5749,0.0,4.66367
283.5,5126.0,284.1528,5062.47,5242.82,63.5279,5306.35,63.5279,4199.12,19.2852,1.16301,973.508,44.633,0.0,5.11173
283.4,3091.0,284.053,3038.06,3058.65,52.9416,3111.59,52.9416,2110.33,18.6915,1.14119,880.909,41.9457,0.0,5.6279
283.3,2020.0,283.953,1973.44,1918.84,46.5581,1965.4,46.5581,1056.43,18.1251,1.11998,797.448,39.4855,0.0,6.22681
283.2,1402.0,283.853,1359.61,1338.32,42.3863,1380.71,42.3863,552.753,17.5845,1.09936,722.731,37.2286,0.0,6.92723
283.1,1070.0,283.753,1030.51,1022.71,39.4909,1062.2,39.4909,305.537,17.0681,1.07929,656.121,35.1538,0.0,7.75362
283.0,875.0,283.6528,837.719,832.57,37.2811,869.851,37.2811,176.086,16.5744,1.05977,596.869,33.2429,0.0,8.73835
282.9,711.0,283.553,675.526,706.806,35.4741,742.28,35.4741,104.053,16.1022,1.04077,544.206,31.4793,0.0,9.92497
282.8,600.0,283.453,565.994,617.557,34.0057,651.562,34.0057,62.2735,15.6501,1.02228,497.389,29.8489,0.0,11.3732
282.7,495.0,283.353,462.233,550.9,32.7666,583.666,32.7666,37.4441,15.217,1.00428,455.728,28.3389,0.0,13.1671
282.6,438.0,283.253,406.256,499.254,31.7443,530.998,31.7443,22.4988,14.8019,0.986743,418.601,26.9379,0.0,15.4276
282.5,400.0,283.1528,369.16,458.254,30.8398,489.094,30.8398,13.4582,14.4037,0.969663,385.452,25.6361,0.0,18.3347
282.4,392.0,283.053,361.986,425.348,30.0137,455.362,30.0137,7.99191,14.0216,0.953021,355.791,24.4245,0.0,22.1664
282.3,363.0,282.953,333.796,399.151,29.2041,428.355,29.2041,4.70124,13.6547,0.936803,329.191,23.2951,0.0,27.3723
282.2,352.0,282.853,323.546,379.202,28.4544,407.656,28.4544,2.73485,13.3021,0.920994,305.279,22.2408,0.0,34.7238
282.1,358.0,282.753,330.273,366.074,27.7275,393.801,27.7275,1.57116,12.9632,0.905581,283.732,21.2552,0.0,45.6469
282.0,372.0,282.6528,345.012,362.043,26.9881,389.031,26.9881,0.890386,12.6372,0.890551,264.267,20.3325,0.0,63.0252
281.9,396.0,282.553,369.78,372.929,26.2199,399.149,26.2199,0.49728,12.3235,0.875892,246.641,19.4677,0.0,93.1242
281.8,440.0,282.453,414.598,411.704,25.4021,437.106,25.4021,0.273491,12.0214,0.86159,230.641,18.656,0.0,149.25
281.7,550.0,282.353,525.507,500.754,24.4934,525.247,24.4934,0.148015,11.7304,0.847635,216.084,17.8933,0.0,254.05
281.6,691.0,282.253,667.642,659.226,23.3575,682.584,23.3575,0.078784,11.45,0.834016,202.809,17.1758,0.0,426.878
281.5,899.0,282.1528,877.07,863.24,21.9304,885.17,21.9304,0.0412208,11.1796,0.820722,190.677,16.5,0.0,644.022
281.4,1001.0,282.053,980.926,1017.31,20.0738,1037.38,20.0738,0.0211908,10.9187,0.807742,179.564,15.8627,0.0,810.135
281.3,1020.0,281.953,1001.99,1014.51,18.0066,1032.52,18.0066,0.0106994,10.667,0.795067,169.363,15.2612,0.0,818.414
281.2,898.0,281.853,882.1,848.806,15.9,864.706,15.9,0.00530398,10.4239,0.782688,159.982,14.6929,0.0,662.919
281.1,645.0,281.753,630.955,621.983,14.0455,636.028,14.0455,0.00258072,10.1891,0.770595,151.337,14.1554,0.0,445.528
281.0,448.0,281.6528,435.287,434.438,12.7134,447.152,12.7134,0.00123212,9.96224,0.758779,143.356,13.6465,0.0,266.714
280.9,302.0,281.553,290.212,315.927,11.7882,327.715,11.7882,0.000577078,9.74292,0.747233,135.974,13.1642,0.0,156.298
280.8,254.0,281.453,242.835,248.943,11.1645,260.108,11.1645,0.000265084,9.53083,0.735948,129.134,12.7068,0.0,96.836
280.7,194.0,281.353,183.36,210.187,10.64,220.827,10.64,0.000119402,9.32564,0.724915,122.785,12.2726,0.0,65.0785
280.6,192.0,281.253,181.761,185.471,10.2393,195.71,10.2393,5.27279e-05,9.12705,0.714129,116.884,11.86,0.0,46.8857
280.5,149.0,281.1528,139.157,168.027,9.84278,177.869,9.84278,2.28241e-05,8.93479,0.703581,111.389,11.4677,0.0,35.5316
280.4,156.0,281.053,146.465,154.732,9.53507,164.268,9.53507,9.68295e-06,8.74859,0.693265,106.265,11.0944,0.0,27.931
280.3,161.0,280.953,151.787,144.041,9.21289,153.254,9.21289,4.02549e-06,8.56819,0.683174,101.48,10.7389,0.0,22.5701
280.2,181.0,280.853,172.12,135.109,8.8804,143.99,8.8804,1.63972e-06,8.39335,0.673301,97.006,10.4,0.0,18.6365
280.1,140.0,280.753,131.493,127.44,8.50659,135.946,8.50659,6.5435e-07,8.22384,0.66364,92.816,10.0768,0.0,15.6595
280.0,139.0,280.6528,130.783,120.719,8.21746,128.936,8.21746,2.55794e-07,8.05946,0.654185,88.8874,9.76828,0.0,13.3493
279.9,143.0,280.553,135.07,114.737,7.9304,122.667,7.9304,9.79418e-08,7.89998,0.644931,85.1992,9.47362,0.0,11.519
279.8,162.0,280.453,154.365,109.349,7.63508,116.984,7.63508,3.67283e-08,7.74522,0.635871,81.7324,9.19199,0.0,10.0435
279.7,166.0,280.353,158.699,104.451,7.30051,111.751,7.30051,1.34881e-08,7.595,0.627,78.47,8.92265,0.0,8.83612
279.6,141.0,280.253,134.042,99.964,6.95769,106.922,6.95769,4.85042e-09,7.44913,0.618314,75.3965,8.66488,0.0,7.83521
279.5,129.0,280.1528,122.334,95.829,6.66649,102.495,6.66649,1.70788e-09,7.30745,0.609806,72.4976,8.41805,0.0,6.99603
279.4,146.0,280.053,139.6,91.9989,6.40008,98.399,6.40008,5.88776e-10,7.16979,0.601473,69.7607,8.18155,0.0,6.28537
279.3,153.0,279.953,146.901,88.4363,6.09856,94.5349,6.09856,1.98716e-10,7.03601,0.593309,67.174,7.95481,0.0,5.67817
279.2,137.0,279.853,131.217,85.1107,5.78258,90.8933,5.78258,6.56551e-11,6.90597,0.585309,64.7269,7.73731,0.0,5.1552
279.1,140.0,279.753,134.5,81.9967,5.49965,87.4963,5.49965,2.12364e-11,6.77951,0.577471,62.4096,7.52855,0.0,4.70152
279.0,122.0,279.6528,116.789,79.073,5.21052,84.2835,5.21052,6.72278e-12,6.65652,0.569788,60.2132,7.32807,0.0,4.30538
278.9,117.0,279.553,112.041,76.3215,4.95857,81.2801,4.95857,2.08431e-12,6.53686,0.562258,58.1295,7.13546,0.0,3.95742
278.8,133.0,279.453,128.283,73.7268,4.71694,78.4437,4.71694,6.31413e-13,6.42042,0.554875,56.1511,6.95029,0.0,3.6501
278.7,126.0,279.353,121.558,71.2752,4.44226,75.7174,4.44226,1.8696e-13,6.30708,0.547637,54.2709,6.7722,0.0,3.37732
278.6,110.0,279.253,105.818,68.955,4.18205,73.137,4.18205,5.55188e-14,6.19672,0.540539,52.4828,6.60083,0.0,3.13408
278.5,126.0,279.1528,122.045,66.7557,3.95487,70.7106,3.95487,1.49676e-14,6.08926,0.533579,50.7808,6.43585,0.0,2.91626
278.4,128.0,279.053,124.305,64.6682,3.69466,68.3629,3.69466,4.12047e-15,5.98457,0.526751,49.1595,6.27694,0.0,2.72042
278.3,139.0,278.953,135.57,62.6842,3.43031,66.1145,3.43031,1.98643e-15,5.88258,0.520054,47.614,6.12382,0.0,2.54371
278.2,141.0,278.853,137.857,60.7962,3.14325,63.9395,3.14325,0.0,5.78319,0.513483,46.1396,5.97621,0.0,2.38369
278.1,144.0,278.753,141.148,58.9977,2.85205,61.8497,2.85205,0.0,5.6863,0.507037,44.7322,5.83384,0.0,2.23834
278.0,125.0,278.6528,122.445,57.2826,2.55466,59.8372,2.55466,0.0,5.59184,0.50071,43.3876,5.69648,0.0,2.10591
277.9,114.0,278.553,111.703,55.6454,2.29651,57.9419,2.29651,0.0,5.49973,0.494501,42.1023,5.56389,0.0,1.98491
277.8,118.0,278.453,115.939,54.0811,2.06108,56.1422,2.06108,0.0,5.40988,0.488407,40.8729,5.43586,0.0,1.87406
277.7,126.0,278.353,124.183,52.5853,1.81738,54.4026,1.81738,0.0,5.32223,0.482424,39.6962,5.31217,0.0,1.77226
277.6,141.0,278.253,139.443,51.1536,1.55717,52.7108,1.55717,0.0,5.2367,0.476551,38.5692,5.19264,0.0,1.67854
277.5,115.0,278.1528,113.734,49.7824,1.26597,51.0483,1.26597,0.0,5.15322,0.470784,37.4892,5.07709,0.0,1.59207
277.4,123.0,278.053,121.972,48.4679,1.02847,49.4964,1.02847,0.0,5.07174,0.465121,36.4536,4.96533,0.0,1.51212
277.3,137.0,277.953,136.226,47.2071,0.774453,47.9816,0.774453,0.0,4.99217,0.45956,35.4601,4.85721,0.0,1.43805
277.2,121.0,277.853,120.508,45.9969,0.49152,46.4884,0.49152,0.0,4.91448,0.454097,34.5065,4.75256,0.0,1.3693
277.1,117.0,277.753,116.758,44.8344,0.241629,45.0761,0.241629,0.0,4.83859,0.448731,33.5905,4.65125,0.0,1.30537