File: XPS/LG4X-result/MX-UT-0.1-Ti2p.csv
#No of rows lightened (2D detector)1(if not using 2D detector, value is 1 and can be ignored!),,,,,,,,,,,,
raw_x,raw_y,corrected x,data-bg,sum_components,bg,sum_fit,TiC,Ti 2+,Ti 3+,Ti 4+,TiC (2p1/2),Ti 2+ (2p1/2),C_7
467.5,14242,467.9195,286,-13575.2,13956,380.831,4.17942e-192,2.09791e-112,6.00131e-96,66.0441,2.57418e-17,0.0371699,314.749
467.4,14317,467.8195,361,-13593.9,13956,362.112,4.57914e-189,1.856e-110,4.01439e-94,67.4081,9.8144e-17,0.0554263,294.648
467.3,14347,467.7195,391,-13611.3,13956,344.688,4.74933e-186,1.58062e-108,2.58195e-92,68.8143,3.66967e-16,0.0820379,275.792
467.2,14236,467.6195,280,-13627.5,13956,328.491,4.66294e-183,1.29579e-106,1.59673e-90,70.2644,1.34564e-15,0.120528,258.106
467.1,14411,467.5195,455,-13642.5,13956,313.455,4.33377e-180,1.02259e-104,9.49449e-89,71.7603,4.83919e-15,0.175766,241.519
467,14406,467.4195,450,-13656.5,13956,299.525,3.81286e-177,7.76835e-103,5.42834e-87,73.3039,1.70669e-14,0.254422,225.967
466.9,14296,467.3195,340,-13669.4,13956,286.648,3.17552e-174,5.68086e-101,2.98413e-85,74.8972,5.90301e-14,0.365552,211.386
466.8,14252,467.2195,296,-13681.2,13956,274.781,2.50355e-171,3.99906e-99,1.57734e-83,76.5424,2.00232e-13,0.521337,197.717
466.7,14114,467.1195,158,-13692.1,13956,263.886,1.86842e-168,2.70995e-97,8.01653e-82,78.2416,6.66087e-13,0.738008,184.906
466.6,14075,467.0195,119,-13702.1,13956,253.935,1.32e-165,1.76776e-95,3.91745e-80,79.9972,2.17304e-12,1.037,172.901
466.5,14229,466.9195,273,-13711.1,13956,244.911,8.82768e-163,1.11006e-93,1.84067e-78,81.8119,6.95256e-12,1.44633,161.652
466.4,14230,466.8195,274,-13719.2,13956,236.804,5.58853e-160,6.71006e-92,8.31583e-77,83.688,2.18152e-11,2.00232,151.114
466.3,14187,466.7195,231,-13726.4,13956,229.623,3.34908e-157,3.90451e-90,3.61235e-75,85.6285,6.71296e-11,2.75152,141.243
466.2,14017,466.6195,61,-13732.6,13956,223.387,1.89989e-154,2.18708e-88,1.50879e-73,87.6363,2.02585e-10,3.75306,131.997
466.1,14149,466.5195,193,-13737.9,13956,218.135,1.02025e-151,1.17929e-86,6.05934e-72,89.7145,5.9957e-10,5.08126,123.34
466,14232,466.4195,276,-13742.1,13956,213.928,5.18637e-149,6.12123e-85,2.33979e-70,91.8663,1.74025e-09,6.82861,115.233
465.9,14111,466.3195,155,-13745.2,13956,210.849,2.49571e-146,3.05854e-83,8.68726e-69,94.0952,4.9536e-09,9.10893,107.645
465.8,14240,466.2195,284,-13747,13956,209.007,1.13684e-143,1.47112e-81,3.10131e-67,96.4048,1.38283e-08,12.0608,100.541
465.7,14146,466.1195,190,-13747.5,13956,208.544,4.90206e-141,6.8115e-80,1.06454e-65,98.7992,3.7858e-08,15.8511,93.8936
465.6,13956,466.0195,0,-13746.4,13956,209.633,2.00093e-138,3.03596e-78,3.51347e-64,101.282,1.01644e-07,20.6784,87.6728
465.5,14196,465.9195,240.86,-13742.7,13955.1,212.487,7.73143e-136,1.30259e-76,1.11497e-62,103.858,2.67638e-07,26.7761,81.8526
465.4,14139,465.8195,185.382,-13736.3,13953.6,217.356,2.82788e-133,5.37995e-75,3.40212e-61,106.532,6.91115e-07,34.4153,76.4079
465.3,14162,465.7195,209.793,-13727.7,13952.2,224.531,9.79117e-131,2.13899e-73,9.98134e-60,109.309,1.75021e-06,43.9067,71.3153
465.2,14305,465.6195,354.809,-13715.8,13950.2,234.347,3.20909e-128,8.18647e-72,2.81569e-58,112.193,4.34678e-06,55.6011,66.5526
465.1,14234,465.5195,286.098,-13700.7,13947.9,247.18,9.95635e-126,3.01609e-70,7.63723e-57,115.191,1.05872e-05,69.8893,62.0992
465,14107,465.4195,160.694,-13682.9,13946.3,263.443,2.92409e-123,1.06967e-68,1.99179e-55,118.308,2.52889e-05,87.199,57.9355
464.9,14191,465.3195,246.146,-13661.3,13944.9,283.585,8.1293e-121,3.65189e-67,4.99465e-54,121.551,5.92399e-05,107.991,54.0434
464.8,14140,465.2195,196.728,-13635.2,13943.3,308.082,2.13937e-118,1.20017e-65,1.20427e-52,124.926,0.000136091,132.75,50.4055
464.7,14437,465.1195,496.202,-13603.4,13940.8,337.426,5.32955e-116,3.79687e-64,2.79188e-51,128.44,0.000306604,161.979,47.0059
464.6,14440,465.0195,502.77,-13565.1,13937.2,372.112,1.2568e-113,1.1563e-62,6.22336e-50,132.102,0.000677412,196.18,43.8293
464.5,14421,464.9195,487.305,-13521.1,13933.7,412.626,2.8055e-111,3.38978e-61,1.33386e-48,135.918,0.00146775,235.845,40.8616
464.4,14451,464.8195,520.905,-13470.7,13930.1,459.421,5.92821e-109,9.56604e-60,2.74884e-47,139.898,0.0031187,281.431,38.0895
464.3,14676,464.7195,750.445,-13412.7,13925.6,512.9,1.18579e-106,2.59868e-58,5.44685e-46,144.051,0.00649847,333.342,35.5003
464.2,14554,464.6195,633.387,-13347.2,13920.6,573.39,2.24522e-104,6.79565e-57,1.03776e-44,148.387,0.0132788,391.907,33.0825
464.1,14504,464.5195,587.747,-13275.1,13916.3,641.12,4.0242e-102,1.71068e-55,1.90109e-43,152.917,0.0266077,457.352,30.8249
464,14528,464.4195,616.046,-13195.8,13912,716.195,6.8276e-100,4.1454e-54,3.34862e-42,157.651,0.0522815,529.775,28.7174
463.9,14687,464.3195,780.031,-13108.4,13907,798.578,1.09654e-97,9.66991e-53,5.67132e-41,162.602,0.100733,609.125,26.7501
463.8,14834,464.2195,933.149,-13012.8,13900.9,888.064,1.66705e-95,2.17139e-51,9.23544e-40,167.783,0.19031,695.177,24.914
463.7,14872,464.1195,977.974,-12909.8,13894,984.275,2.39904e-93,4.69366e-50,1.44606e-38,173.208,0.352537,787.514,23.2007
463.6,15006,464.0195,1119.46,-12799.9,13886.5,1086.65,3.26809e-91,9.76664e-49,2.17707e-37,178.892,0.640297,885.514,21.6022
463.5,14957,463.9195,1078.31,-12684.2,13878.7,1194.44,4.21422e-89,1.95631e-47,3.15146e-36,184.85,1.14017,988.341,20.1109
463.4,15102,463.8195,1231.56,-12563.7,13870.4,1306.76,5.14404e-87,3.77215e-46,4.3864e-35,191.102,1.99043,1094.94,18.7199
463.3,15354,463.7195,1493.29,-12438.1,13860.7,1422.56,5.94371e-85,7.00162e-45,5.87029e-34,197.664,3.40631,1204.07,17.4227
463.2,15466,463.6195,1616.39,-12308.9,13849.6,1540.75,6.50093e-83,1.25103e-43,7.55381e-33,204.558,5.7141,1314.27,16.213
463.1,15513,463.5195,1675.15,-12177.6,13837.9,1660.22,6.73066e-81,2.15177e-42,9.34606e-32,211.804,9.39515,1423.94,15.0852
463,15449,463.4195,1622.93,-12046.1,13826.1,1779.94,6.59635e-79,3.56274e-41,1.11185e-30,219.427,15.1395,1531.34,14.0338
462.9,15616,463.3195,1802.16,-11914.8,13813.8,1899.07,6.11946e-77,5.67845e-40,1.27181e-29,227.452,23.9071,1634.66,13.0539
462.8,15769,463.2195,1968.62,-11783.3,13800.4,2017.07,5.37386e-75,8.71235e-39,1.39878e-28,235.906,36.9915,1732.03,12.1407
462.7,15814,463.1195,2027.89,-11652.3,13786.1,2133.81,4.46705e-73,1.28677e-37,1.47923e-27,244.818,56.0772,1821.63,11.2897
462.6,16150,463.0195,2379.63,-11520.7,13770.4,2249.67,3.51494e-71,1.82946e-36,1.5041e-26,254.221,83.2767,1901.68,10.4969
462.5,16164,462.9195,2410.74,-11387.7,13753.3,2365.59,2.61805e-69,2.50383e-35,1.47052e-25,264.149,121.131,1970.55,9.75844
462.4,16201,462.8195,2465.15,-11252.8,13735.9,2483.07,1.84586e-67,3.29873e-34,1.38237e-24,274.64,172.55,2026.81,9.0706
462.3,16257,462.7195,2539.02,-11113.9,13718,2604.09,1.23191e-65,4.18357e-33,1.24948e-23,285.734,240.681,2069.25,8.43004
462.2,16472,462.6195,2772.99,-10968.1,13699,2730.92,7.78254e-64,5.10748e-32,1.08591e-22,297.475,328.673,2096.94,7.83361
462.1,16602,462.5195,2923.33,-10812.9,13678.7,2865.82,4.65397e-62,6.00241e-31,9.07426e-22,309.912,439.351,2109.27,7.27835
462,16795,462.4195,3137.97,-10646.4,13657,3010.63,2.63442e-60,6.79052e-30,7.29097e-21,323.096,574.795,2105.98,6.76148
461.9,16811,462.3195,3176.52,-10468.1,13634.5,3166.35,1.41158e-58,7.39502e-29,5.63267e-20,337.084,735.856,2087.13,6.28043
461.8,17016,462.2195,3405.03,-10278.4,13611,3332.58,7.15954e-57,7.75238e-28,4.18408e-19,351.936,921.674,2053.14,5.83277
461.7,17059,462.1195,3472.58,-10079.3,13586.4,3507.14,3.43734e-55,7.8233e-27,2.98841e-18,367.719,1129.25,2004.76,5.41625
461.6,17394,462.0195,3833.68,-9874.59,13560.3,3685.74,1.56213e-53,7.59982e-26,2.05228e-17,384.506,1353.18,1943.03,5.02876
461.5,17401,461.9195,3868.18,-9670.91,13532.8,3861.91,6.72004e-52,7.10683e-25,1.35515e-16,402.374,1585.61,1869.26,4.66833
461.4,17433,461.8195,3928.02,-9477.73,13505,4027.25,2.73641e-50,6.39746e-24,8.6039e-16,421.408,1816.52,1784.99,4.33312
461.3,17469,461.7195,3992.3,-9304.79,13476.7,4171.91,1.05475e-48,5.54368e-23,5.25241e-15,441.7,2034.29,1691.9,4.02141
461.2,17647,461.6195,4199.55,-9161.97,13447.4,4285.48,3.84833e-47,4.62432e-22,3.08302e-14,463.35,2226.59,1591.8,3.73159
461.1,17752,461.5195,4335.03,-9058.98,13417,4357.99,1.32908e-45,3.71327e-21,1.74001e-13,486.465,2381.53,1486.54,3.46216
461,17795,461.4195,4409.26,-9004.63,13385.7,4381.11,4.34495e-44,2.87028e-20,9.44236e-13,511.16,2488.78,1377.96,3.21173
460.9,17632,461.3195,4277.27,-9005.54,13354.7,4349.18,1.34454e-42,2.13576e-19,4.92681e-12,537.56,2540.78,1267.86,2.979
460.8,17698,461.2195,4374.17,-9063.78,13323.8,4260.06,3.93837e-41,1.52981e-18,2.47176e-11,565.797,2533.57,1157.93,2.76273
460.7,17491,461.1195,4197.78,-9177.66,13293.2,4115.57,1.09198e-39,1.05483e-17,1.19235e-10,596.015,2467.29,1049.7,2.56181
460.6,17199,461.0195,3934.82,-9342.67,13264.2,3921.51,2.86593e-38,7.00142e-17,5.53037e-10,628.361,2346.23,944.546,2.37516
460.5,16844,460.9195,3606.75,-9550.08,13237.3,3687.17,7.11982e-37,4.47352e-16,2.46639e-09,662.996,2178.34,843.635,2.20179
460.4,16619,460.8195,3406.79,-9787.77,13212.2,3424.43,1.67427e-35,2.75151e-15,1.05761e-08,700.081,1974.38,747.928,2.04079
460.3,16507,460.7195,3318.81,-10041.6,13188.2,3146.61,3.72679e-34,1.62912e-14,4.36057e-08,739.786,1746.76,658.172,1.89129
460.2,16149,460.6195,2983.32,-10298.5,13165.7,2867.22,7.85229e-33,9.28521e-14,1.72869e-07,782.281,1508.28,574.901,1.7525
460.1,15775,460.5195,2629.36,-10546.9,13145.6,2598.76,1.56606e-31,5.09437e-13,6.58943e-07,827.732,1270.96,498.449,1.62366
460,15426,460.4195,2297.95,-10776.2,13128,2351.81,2.95646e-30,2.6906e-12,2.41509e-06,876.3,1045.04,428.965,1.50408
459.9,15178,460.3195,2065.54,-10978.1,13112.5,2134.34,5.28307e-29,1.36794e-11,8.51087e-06,928.126,838.388,366.435,1.39311
459.8,14844,460.2195,1745.14,-11147.3,13098.9,1951.51,8.93615e-28,6.69487e-11,2.88383e-05,983.329,656.187,310.704,1.29014
459.7,14816,460.1195,1729.55,-11280.8,13086.4,1805.69,1.43075e-26,3.15411e-10,9.39555e-05,1041.99,501.003,261.499,1.19461
459.6,14778,460.0195,1703.81,-11377.4,13074.2,1696.82,2.16834e-25,1.43044e-09,0.000294327,1104.14,373.119,218.458,1.106
459.5,14727,459.9195,1664.84,-11439.2,13062.2,1622.92,3.11057e-24,6.24488e-09,0.00088653,1169.72,271.027,181.15,1.02382
459.4,14746,459.8195,1695.84,-11469.5,13050.2,1580.66,4.22377e-23,2.62444e-08,0.00256751,1238.6,192.002,149.103,0.947607
459.3,14641,459.7195,1602.62,-11472.5,13038.4,1565.88,5.42886e-22,1.06171e-07,0.00714968,1310.53,132.646,121.816,0.876945
459.2,14608,459.6195,1580.99,-11452.9,13027,1574.06,6.60488e-21,4.13464e-07,0.0191433,1385.09,89.3611,98.7866,0.811436
459.1,14494,459.5195,1477.91,-11415.4,13016.1,1600.71,7.60621e-20,1.54998e-06,0.0492835,1461.69,58.7004,79.518,0.750715
459,14570,459.4195,1564.78,-11363.7,13005.2,1641.51,8.29122e-19,5.59339e-06,0.121995,1539.56,37.5964,63.5341,0.694438
458.9,14611,459.3195,1617.14,-11301.4,12993.9,1692.48,8.55491e-18,1.94304e-05,0.290362,1617.69,23.4768,50.3875,0.64229
458.8,14673,459.2195,1690.95,-11232,12982,1750.03,8.35522e-17,6.49753e-05,0.664495,1694.82,14.2921,39.6655,0.593973
458.7,14833,459.1195,1863.65,-11158.4,12969.4,1810.97,7.72407e-16,0.000209158,1.46218,1769.48,8.48191,30.9939,0.549212
458.6,14876,459.0195,1920.16,-11083.3,12955.8,1872.55,6.75895e-15,0.000648124,3.09359,1840.01,4.90697,24.0388,0.507753
458.5,14839,458.9195,1896.79,-11009.6,12942.2,1932.62,5.59832e-14,0.00193331,6.29335,1904.58,2.76717,18.5065,0.469356
458.4,14924,458.8195,1995.69,-10938.6,12928.3,1989.73,4.38915e-13,0.00555142,12.3099,1961.32,1.52104,14.142,0.433802
458.3,15077,458.7195,2163.54,-10869.9,12913.5,2043.52,3.25721e-12,0.0153449,23.1519,2008.42,0.814912,10.7268,0.400884
458.2,14878,458.6195,1979.33,-10803.7,12898.7,2094.99,2.288e-11,0.0408306,41.867,2044.21,0.42553,8.07615,0.370411
458.1,14874,458.5195,1989.51,-10737.6,12884.5,2146.89,1.52128e-10,0.104584,72.7969,2067.39,0.216562,6.03548,0.342206
458,14963,458.4195,2093.08,-10666,12869.9,2203.91,9.57426e-10,0.257872,121.705,2077.05,0.107412,4.47707,0.316104
457.9,15183,458.3195,2328.88,-10581.4,12854.1,2272.69,5.70352e-09,0.61207,195.642,2072.8,0.0519193,3.29647,0.291951
457.8,15255,458.2195,2417.83,-10475.9,12837.2,2361.31,3.21605e-08,1.39848,302.392,2054.81,0.0244566,2.40923,0.269606
457.7,15450,458.1195,2630.85,-10340.9,12819.1,2478.29,1.7165e-07,3.07591,449.401,2023.8,0.0112264,1.74776,0.248935
457.6,15516,458.0195,2715.95,-10168.9,12800.1,2631.11,8.67177e-07,6.5125,642.174,1980.93,0.00502171,1.25852,0.229817
457.5,15752,457.9195,2972.26,-9955.29,12779.7,2824.45,4.14678e-06,13.2734,882.322,1927.74,0.00218886,0.899523,0.212136
457.4,15809,457.8195,3050.77,-9699.73,12758.2,3058.5,1.87696e-05,26.042,1165.62,1866,0.000929674,0.638172,0.195789
457.3,16112,457.7195,3376.72,-9407.27,12735.3,3328.01,8.04154e-05,49.1842,1480.62,1797.57,0.000384748,0.449405,0.180675
457.2,16236,457.6195,3525.37,-9088.06,12710.6,3622.58,0.000326109,89.4203,1808.36,1724.32,0.000155148,0.314132,0.166704
457.1,16689,457.5195,4005.26,-8755.27,12683.7,3928.47,0.00125177,156.497,2123.64,1647.96,6.09585e-05,0.217951,0.153792
457,16901,457.4195,4246.73,-8422.34,12654.3,4231.93,0.00454807,263.654,2397.92,1570.06,2.33361e-05,0.1501,0.14186
456.9,17069,457.3195,4445.77,-8100.03,12623.2,4523.2,0.0156411,427.585,2603.41,1491.96,8.70402e-06,0.102607,0.130835
456.8,17319,457.2195,4728.53,-7790.22,12590.5,4800.25,0.0509149,667.527,2717.73,1414.76,3.16303e-06,0.0696221,0.120649
456.7,17425,457.1195,4868.8,-7485.52,12556.2,5070.68,0.156878,1003.17,2727.88,1339.32,1.11988e-06,0.0468911,0.111241
456.6,17963,457.0195,5443.62,-7168.54,12519.4,5350.83,0.457525,1451.24,2632.69,1266.31,3.86289e-07,0.0313479,0.102552
456.5,18142,456.9195,5662.28,-6818.11,12479.7,5661.61,1.263,2020.99,2443.04,1196.2,1.29815e-07,0.0208018,0.0945281
456.4,18670,456.8195,6232.76,-6415.5,12437.2,6021.74,3.30014,2709.23,2179.8,1129.31,4.25011e-08,0.0137014,0.0871196
456.3,19197,456.7195,6806.32,-5950.41,12390.7,6440.27,8.16197,3496.13,1870.07,1065.81,1.3556e-08,0.0089579,0.0802804
456.2,19230,456.6195,6888.22,-5431.2,12341.8,6910.57,19.1071,4342.99,1542.6,1005.79,4.21227e-09,0.00581326,0.0739676
456.1,19488,456.5195,7196.52,-4882.95,12291.5,7408.53,42.3379,5193.36,1223.51,949.248,1.2751e-09,0.00374462,0.0681416
456,19950,456.4195,7711.75,-4342.03,12238.2,7896.21,88.7971,5978.16,933.073,896.117,3.76023e-10,0.00239425,0.0627655
455.9,20272,456.3195,8090.18,-3850.61,12181.8,8331.21,176.28,6624.38,684.194,846.295,1.08024e-10,0.00151952,0.0578053
455.8,20408,456.2195,8284.66,-3443.87,12123.3,8679.47,331.24,7066.14,482.391,799.646,3.0231e-11,0.000957229,0.0532296
455.7,20702,456.1195,8639.09,-3135,12062.9,8927.91,589.137,7255.68,327.02,756.018,8.24162e-12,0.000598549,0.0490091
455.6,21115,456.0195,9115.49,-2907.38,11999.5,9092.13,991.799,7171.89,213.159,715.245,2.18874e-12,0.000371499,0.0451168
455.5,21489,455.9195,9556.17,-2717.52,11932.8,9215.32,1580.39,6824.13,133.595,677.158,5.66228e-13,0.00022887,0.0415278
455.4,21564,455.8195,9699.93,-2507.73,11864.1,9356.34,2383.63,6250.58,80.5067,641.588,1.42693e-13,0.000139957,0.0382188
455.3,21873,455.7195,10079.6,-2224.25,11793.4,9569.2,3402.86,5511.28,46.6476,608.368,3.50284e-14,8.49524e-05,0.0351686
455.2,22120,455.6195,10399.7,-1840.97,11720.3,9879.34,4598.16,4677.82,25.9885,577.338,8.37616e-15,5.11835e-05,0.0323571
455.1,22159,455.5195,10513.4,-1380.26,11645.6,10265.4,5881.05,3822.03,13.9216,548.346,1.95106e-15,3.06096e-05,0.0297662
455,21996,455.4195,10425.1,-916.685,11570.9,10654.2,7119.64,3006.1,7.17058,521.246,4.42685e-16,1.81702e-05,0.0273789
454.9,21779,455.3195,10282.1,-563.285,11496.9,10933.6,8158.16,2275.99,3.55119,495.901,9.78392e-17,1.07062e-05,0.0251794
454.8,21541,455.2195,10116.9,-443.1,11424.1,10981,8848.26,1658.82,1.69102,472.184,2.10631e-17,6.26161e-06,0.0231534
454.7,21680,455.1195,10328.9,-652.954,11351.1,10698.1,9083.52,1163.82,0.774247,449.976,4.41694e-18,3.63504e-06,0.0212873
454.6,21287,455.0195,10008.6,-1236.55,11278.4,10041.9,8826.35,786.013,0.340852,429.167,9.02206e-19,2.09463e-06,0.0195689
454.5,20832,454.9195,9623.67,-2169.71,11208.3,9038.62,8117.79,511.015,0.144281,409.653,1.79503e-19,1.19806e-06,0.0179866
454.4,19868,454.8195,8725.19,-3364.75,11142.8,7778.06,7066.83,319.814,0.0587226,391.341,3.47872e-20,6.80183e-07,0.01653
454.3,18245,454.7195,7158.91,-4696.31,11086.1,6389.78,5822.93,192.672,0.0229804,374.142,6.56666e-21,3.83306e-07,0.0151891
454.2,16150,454.6195,5107.72,-6031.18,11042.3,5011.11,4541.37,111.738,0.00864702,357.977,1.20738e-21,2.14408e-07,0.013955
454.1,14305,454.5195,3292.71,-7254.68,11012.3,3757.61,3352.44,62.3794,0.00312846,342.77,2.1623e-22,1.19044e-07,0.0128194
454,13159,454.4195,2166.21,-8288.39,10992.8,2704.41,2342.42,33.5228,0.0010883,328.452,3.77188e-23,6.5607e-08,0.0117745
453.9,12387,454.3195,1406.97,-9098.56,10980,1881.48,1549.16,17.342,0.00036402,314.962,6.40868e-24,3.58894e-08,0.0108132
453.8,11879,454.2195,907.23,-9691.14,10971.8,1280.63,969.741,8.63607,0.000117073,302.24,1.06058e-24,1.94875e-08,0.00992906
453.7,11715,454.1195,749.144,-10096.9,10965.9,868.953,574.57,4.13993,3.62029e-05,290.233,1.70956e-25,1.05032e-08,0.00911587
453.6,11522,454.0195,560.822,-10358.1,10961.2,603.035,322.224,1.91042,1.07643e-05,278.892,2.68403e-26,5.619e-09,0.0083681
453.5,11625,453.9195,668.211,-10516.7,10956.8,440.068,171.041,0.848638,3.07739e-06,268.171,4.10439e-27,2.98381e-09,0.00768057
453.4,11510,453.8195,557.588,-10608.1,10952.4,344.333,85.9346,0.362891,8.45932e-07,258.028,6.1132e-28,1.57274e-09,0.00704853
453.3,11426,453.7195,477.284,-10659.3,10948.7,289.447,40.8661,0.149379,2.23586e-07,248.425,8.86839e-29,8.22844e-10,0.00646759
453.2,11364,453.6195,418.482,-10687.7,10945.5,257.785,18.3944,0.0591916,5.68209e-08,239.325,1.25307e-29,4.27319e-10,0.00593368
453.1,11337,453.5195,394.385,-10704.1,10942.6,238.561,7.83669,0.0225783,1.38844e-08,230.696,1.72448e-30,2.20272e-10,0.00544307
453,11325,453.4195,385.169,-10714.2,10939.8,225.681,3.16013,0.00829049,3.26215e-09,222.508,2.3115e-31,1.12705e-10,0.00499232
452.9,11296,453.3195,358.826,-10721.2,10937.2,215.945,1.20616,0.00293041,7.36944e-10,214.731,3.01771e-32,5.72399e-11,0.00457825
452.8,11248,453.2195,313.225,-10727,10934.8,207.782,0.43574,0.000997095,1.60074e-10,207.341,3.83716e-33,2.88555e-11,0.00419793
452.7,11206,453.1195,273.32,-10732.2,10932.7,200.465,0.148997,0.00032659,3.34321e-11,200.312,4.75214e-34,1.44389e-11,0.00384865
452.6,11113,453.0195,181.946,-10737.4,10931.1,193.675,0.0482225,0.000102974,6.71368e-12,193.623,5.73209e-35,7.17152e-12,0.00352793
452.5,11035,452.9195,104.97,-10742.8,10930,187.271,0.0147723,3.12546e-05,1.29633e-12,187.253,6.73413e-36,3.5356e-12,0.00323348
452.4,11128,452.8195,199.056,-10747.8,10928.9,181.189,0.00428321,9.13182e-06,2.40671e-13,181.182,7.70537e-37,1.73018e-12,0.00296318
452.3,11051,452.7195,123.207,-10752.4,10927.8,175.397,0.00117548,2.56839e-06,4.29623e-14,175.393,8.58709e-38,8.40408e-13,0.0027151
452.2,11078,452.6195,151.187,-10756.9,10926.8,169.872,0.00030534,6.9538e-07,7.37407e-15,169.869,9.32067e-39,4.05196e-13,0.00248743
452.1,11067,452.5195,141.231,-10761.2,10925.8,164.597,7.50716e-05,1.81235e-07,1.21698e-15,164.594,9.85273e-40,1.93916e-13,0.00227853
452,11063,452.4195,138.229,-10765.2,10924.8,159.557,1.74699e-05,4.54697e-08,1.93114e-16,159.555,1.01451e-40,9.21161e-14,0.00208687
451.9,11147,452.3195,223.52,-10768.7,10923.5,154.74,3.84795e-06,1.09815e-08,2.94646e-17,154.738,1.01729e-41,4.34342e-14,0.00191107
451.8,11122,452.2195,200.033,-10771.8,10922,150.132,8.02213e-07,2.55305e-09,4.32258e-18,150.13,9.93817e-43,2.03283e-14,0.00174982
451.7,10977,452.1195,55.9471,-10775.3,10921.1,145.722,1.58297e-07,5.71368e-10,6.09735e-19,145.72,9.4468e-44,9.44379e-15,0.00160196
451.6,11161,452.0195,241.007,-10778.5,10920,141.498,2.9565e-08,1.23093e-10,8.26979e-20,141.497,8.75193e-45,4.35477e-15,0.00146638
451.5,11178,451.9195,259.796,-10780.8,10918.2,137.452,5.22642e-09,2.55274e-11,1.07846e-20,137.451,7.88763e-46,1.99323e-15,0.00134208
451.4,10929,451.8195,11.7655,-10783.7,10917.2,133.573,8.74486e-10,5.09614e-12,1.35228e-21,133.571,6.94326e-47,9.05573e-16,0.00122815
451.3,11108,451.7195,191.491,-10786.7,10916.5,129.852,1.38491e-10,9.79341e-13,1.63038e-22,129.85,5.93685e-48,4.0838e-16,0.00112373
451.2,11149,451.6195,234.011,-10788.7,10915,126.281,2.07593e-11,1.8117e-13,1.89001e-23,126.28,4.89685e-49,1.82801e-16,0.00102804
451.1,10957,451.5195,43,-10791.1,10914,122.852,2.94527e-12,3.22624e-14,2.10666e-24,122.851,3.89921e-50,8.12208e-17,0.000940365
451,10914,451.4195,0,-10794.4,10914,119.559,3.95509e-13,5.53053e-15,2.25778e-25,119.558,3.04492e-51,3.58203e-17,0.000860045
450.9,10987,451.3195,73,-10797.6,10914,116.393,5.027e-14,9.12633e-16,2.32661e-26,116.392,2.33192e-52,1.56807e-17,0.000786475
450.8,11033,451.2195,119,-10800.7,10914,113.349,6.04758e-15,1.44972e-16,2.30527e-27,113.349,1.75143e-53,6.8136e-18,0.000719095
450.7,11007,451.1195,93,-10803.6,10914,110.421,6.88611e-16,2.21682e-17,2.19622e-28,110.421,1.29006e-54,2.93874e-18,0.000657395
450.6,11100,451.0195,186,-10806.4,10914,107.603,7.42141e-17,3.26315e-18,2.0118e-29,107.603,1.86378e-55,1.25811e-18,0.000600904
450.5,11078,450.9195,164,-10809.1,10914,104.89,7.57039e-18,4.62384e-19,1.77194e-30,104.889,0,5.34628e-19,0.000549189
450.4,11067,450.8195,153,-10811.7,10914,102.276,7.30918e-19,6.30706e-20,1.50062e-31,102.276,0,2.25506e-19,0.000501853
450.3,11176,450.7195,262,-10814.2,10914,99.7572,6.67942e-20,8.28152e-21,1.22193e-32,99.7568,0,9.44146e-20,0.000458532