File: XPS/LG4X-result/MX-UT-0.1-3-Ti2p.csv
#No of rows lightened (2D detector)1(if not using 2D detector, value is 1 and can be ignored!)
raw_x,raw_y,corrected x,data-bg,sum_components,bg,sum_fit,TiC,Ti 2+,Ti 3+,C_4,C_5,C_6,Ti 4+,C_8
470.0,14476.0,470.4017,520.0,-13871.5,13956.0,84.4889,10.672,31.6184,15.2465,12.4618,7.10076,4.1203,1.21343,2.05573
469.9,14476.0,470.3017,520.0,-13870.1,13956.0,85.9311,10.8091,32.0473,15.4672,12.7373,7.27674,4.23806,1.23422,2.12112
469.8,14584.0,470.202,628.0,-13868.6,13956.0,87.4141,10.9489,32.4851,15.6927,13.022,7.45934,4.36095,1.25554,2.18967
469.7,14494.0,470.102,538.0,-13867.1,13956.0,88.9399,11.0914,32.9318,15.9231,13.3164,7.64891,4.48927,1.27742,2.26159
469.6,14297.0,470.0017,341.0,-13865.5,13956.0,90.5102,11.2366,33.3879,16.1587,13.6209,7.8458,4.62334,1.29988,2.33711
469.5,14291.0,469.9017,335.0,-13863.9,13956.0,92.127,11.3848,33.8534,16.3996,13.9359,8.0504,4.76352,1.32293,2.41646
469.4,14243.0,469.8017,287.0,-13862.2,13956.0,93.7923,11.5359,34.3288,16.6458,14.262,8.2631,4.91017,1.34661,2.49992
469.3,14296.0,469.702,340.0,-13860.5,13956.0,95.5083,11.69,34.8143,16.8977,14.5997,8.48436,5.0637,1.37092,2.58776
469.2,14536.0,469.602,580.0,-13858.7,13956.0,97.2774,11.8472,35.3101,17.1553,14.9495,8.71462,5.22455,1.3959,2.6803
469.1,14446.0,469.5017,490.0,-13856.9,13956.0,99.1021,12.0076,35.8165,17.4189,15.312,8.95439,5.3932,1.42157,2.77789
469.0,14395.0,469.4017,439.0,-13855,13956.0,100.985,12.1713,36.3339,17.6885,15.6879,9.2042,5.57016,1.44795,2.88089
468.9,14440.0,469.3017,484.0,-13853.1,13956.0,102.929,12.3384,36.8627,17.9645,16.0778,9.46461,5.75598,1.47507,2.9897
468.8,14333.0,469.202,377.0,-13851.1,13956.0,104.937,12.509,37.403,18.247,16.4824,9.73623,5.95126,1.50296,3.10478
468.7,14388.0,469.102,432.0,-13849,13956.0,107.012,12.683,37.9553,18.5362,16.9025,10.0197,6.15666,1.53165,3.22661
468.6,14291.0,469.0017,335.0,-13846.8,13956.0,109.157,12.8608,38.5199,18.8323,17.3388,10.3158,6.37289,1.56117,3.35574
468.5,14336.0,468.9017,380.0,-13844.6,13956.0,111.377,13.0423,39.0972,19.1355,17.7923,10.6252,6.60073,1.59154,3.49274
468.4,14317.0,468.8017,361.0,-13842.3,13956.0,113.676,13.2277,39.6875,19.4462,18.2638,10.9487,6.84102,1.62282,3.63827
468.3,14229.0,468.702,273.0,-13839.9,13956.0,116.057,13.417,40.2913,19.7645,18.7543,11.2873,7.0947,1.65502,3.79306
468.2,14410.0,468.602,454.0,-13837.5,13956.0,118.525,13.6105,40.909,20.0906,19.2648,11.6417,7.36276,1.68819,3.9579
468.1,14260.0,468.5017,304.0,-13834.9,13956.0,121.086,13.8082,41.541,20.4249,19.7964,12.0132,7.64633,1.72237,4.13367
468.0,14195.0,468.4017,239.0,-13832.3,13956.0,123.744,14.0102,42.1877,20.7676,20.3504,12.4028,7.94661,1.75759,4.32137
467.9,14060.0,468.3017,104.0,-13829.5,13956.0,126.506,14.2166,42.8496,21.119,20.9279,12.8116,8.26497,1.79391,4.52208
467.8,14032.0,468.202,76.0,-13826.6,13956.0,129.377,14.4277,43.5272,21.4793,21.5304,13.241,8.60287,1.83136,4.73703
467.7,14351.0,468.102,395.0,-13823.6,13956.0,132.365,14.6435,44.2211,21.849,22.1593,13.6923,8.96196,1.87,4.9676
467.6,14323.0,468.0017,367.0,-13820.5,13956.0,135.476,14.8641,44.9316,22.2283,22.8161,14.1671,9.34404,1.90987,5.21532
467.5,14242.0,467.9017,286.0,-13817.3,13956.0,138.72,15.0898,45.6593,22.6175,23.5026,14.6671,9.75112,1.95102,5.48193
467.4,14317.0,467.8017,361.0,-13813.9,13956.0,142.106,15.3207,46.4049,23.0171,24.2205,15.1941,10.1854,1.99353,5.76938
467.3,14347.0,467.702,391.0,-13810.4,13956.0,145.642,15.5569,47.1688,23.4273,24.9718,15.75,10.6495,2.03743,6.07989
467.2,14236.0,467.602,280.0,-13806.7,13956.0,149.339,15.7986,47.9518,23.8486,25.7587,16.3369,11.146,2.0828,6.41597
467.1,14411.0,467.5017,455.0,-13802.8,13956.0,153.211,16.046,48.7544,24.2813,26.5833,16.9574,11.6782,2.1297,6.78047
467.0,14406.0,467.4017,450.0,-13798.7,13956.0,157.269,16.2992,49.5773,24.726,27.4481,17.6139,12.2495,2.1782,7.17667
466.9,14296.0,467.3017,340.0,-13794.5,13956.0,161.528,16.5585,50.4212,25.1829,28.3559,18.3092,12.8638,2.22838,7.60831
466.8,14252.0,467.202,296.0,-13790,13956.0,166.005,16.824,51.2868,25.6526,29.3095,19.0467,13.5256,2.28031,8.0797
466.7,14114.0,467.102,158.0,-13785.3,13956.0,170.718,17.0959,52.1748,26.1356,30.3119,19.8296,14.24,2.33407,8.5958
466.6,14075.0,467.0017,119.0,-13780.3,13956.0,175.686,17.3745,53.0861,26.6324,31.3667,20.6619,15.0126,2.38975,9.16238
466.5,14229.0,466.9017,273.0,-13775.1,13956.0,180.934,17.66,54.0214,27.1434,32.4775,21.5477,15.85,2.44745,9.78613
466.4,14230.0,466.8017,274.0,-13769.5,13956.0,186.485,17.9525,54.9817,27.6692,33.6484,22.4918,16.7596,2.50726,10.4749
466.3,14187.0,466.702,231.0,-13763.6,13956.0,192.371,18.2523,55.9677,28.2105,34.8838,23.4994,17.7501,2.56929,11.2378
466.2,14017.0,466.602,61.0,-13757.4,13956.0,198.623,18.5598,56.9805,28.7678,36.1884,24.5763,18.8312,2.63365,12.0857
466.1,14149.0,466.5017,193.0,-13750.7,13956.0,205.281,18.875,58.021,29.3418,37.5677,25.729,20.0146,2.70045,13.0314
466.0,14232.0,466.4017,276.0,-13743.6,13956.0,212.387,19.1984,59.0903,29.9331,39.0273,26.9649,21.3134,2.76982,14.0901
465.9,14111.0,466.3017,155.0,-13736,13956.0,219.993,19.5301,60.1893,30.5425,40.5736,28.2921,22.7433,2.8419,15.2798
465.8,14240.0,466.202,284.0,-13727.8,13956.0,228.156,19.8705,61.3192,31.1706,42.2137,29.7199,24.3227,2.91682,16.6225
465.7,14146.0,466.102,190.0,-13719.1,13956.0,236.945,20.2198,62.4812,31.8184,43.9553,31.2587,26.073,2.99475,18.1442
465.6,13956.0,466.0017,0.0,-13709.6,13956.0,246.441,20.5785,63.6765,32.4864,45.8069,32.9203,28.02,3.07583,19.8766
465.5,14196.0,465.9017,240.86,-13698.4,13955.1,256.738,20.9467,64.9063,33.1758,47.778,34.7182,30.1945,3.16024,21.858
465.4,14139.0,465.8017,185.382,-13685.7,13953.6,267.947,21.325,66.1722,33.8873,49.8791,36.6676,32.6335,3.24818,24.1347
465.3,14162.0,465.702,209.793,-13672,13952.2,280.203,21.7135,67.4753,34.6219,52.1219,38.7863,35.3817,3.33982,26.7629
465.2,14305.0,465.602,354.809,-13656.5,13950.2,293.664,22.1128,68.8173,35.3806,54.5193,41.0943,38.494,3.4354,29.8101
465.1,14234.0,465.5017,286.098,-13639.4,13947.9,308.519,22.5232,70.1996,36.1646,57.0861,43.6149,42.0379,3.53513,33.3572
465.0,14107.0,465.4017,160.694,-13621.3,13946.3,324.993,22.9451,71.6239,36.9748,59.8384,46.3751,46.0973,3.63926,37.4988
464.9,14191.0,465.3017,246.146,-13601.5,13944.9,343.353,23.379,73.092,37.8126,62.7946,49.4064,50.7777,3.74806,42.343
464.8,14140.0,465.202,196.728,-13579.4,13943.3,363.913,23.8252,74.6056,38.6791,65.9753,52.7453,56.2127,3.86179,48.0076
464.7,14437.0,465.102,496.202,-13553.8,13940.8,387.032,24.2844,76.1666,39.5757,69.4039,56.4351,62.5737,3.98078,54.6115
464.6,14440.0,465.0017,502.77,-13524.1,13937.2,413.119,24.757,77.7771,40.5039,73.1068,60.5268,70.0835,4.10533,62.2585
464.5,14421.0,464.9017,487.305,-13491.1,13933.7,442.624,25.2434,79.439,41.465,77.114,65.0809,79.034,4.23582,71.0123
464.4,14451.0,464.8017,520.905,-13454.1,13930.1,476.036,25.7444,81.1548,42.4607,81.4596,70.17,89.813,4.37261,80.8611
464.3,14676.0,464.702,750.445,-13411.7,13925.6,513.875,26.2603,82.9266,43.4927,86.1831,75.8814,102.94,4.51612,91.6753
464.2,14554.0,464.602,633.387,-13363.9,13920.6,556.707,26.792,84.757,44.5627,91.3293,82.3207,119.112,4.66679,103.166
464.1,14504.0,464.5017,587.747,-13311.1,13916.3,605.179,27.3399,86.6485,45.6727,96.9502,89.6172,139.265,4.82512,114.861
464.0,14528.0,464.4017,616.046,-13251.9,13912,660.096,27.9048,88.604,46.8246,103.106,97.93,164.631,4.99163,126.104
463.9,14687.0,464.3017,780.031,-13184.5,13907,722.512,28.4874,90.6262,48.0206,109.867,107.456,196.781,5.16688,136.107
463.8,14834.0,464.202,933.149,-13107,13900.9,793.818,29.0884,92.7184,49.2629,117.314,118.444,237.596,5.3515,144.042
463.7,14872.0,464.102,977.974,-13018.3,13894,875.711,29.7086,94.8837,50.554,125.543,131.207,289.096,5.54617,149.173
463.6,15006.0,464.0017,1119.46,-12916.6,13886.5,969.958,30.3488,97.1255,51.8964,134.669,146.144,353.037,5.75162,150.985
463.5,14957.0,463.9017,1078.31,-12800.8,13878.7,1077.84,31.0099,99.4476,53.293,144.825,163.773,430.232,5.96868,149.291
463.4,15102.0,463.8017,1231.56,-12671.1,13870.4,1199.32,31.6929,101.854,54.7466,156.171,184.766,519.623,6.19821,144.266
463.3,15354.0,463.702,1493.29,-12528.6,13860.7,1332.15,32.3986,104.348,56.2605,168.901,210.007,617.379,6.44121,136.415
463.2,15466.0,463.602,1616.39,-12378.2,13849.6,1471.38,33.1281,106.935,57.8379,183.248,240.66,716.401,6.69872,126.469
463.1,15513.0,463.5017,1675.15,-12228.2,13837.9,1609.7,33.8826,109.619,59.4825,199.496,278.256,806.738,6.97194,115.255
463.0,15449.0,463.4017,1622.93,-12087.1,13826.1,1739.01,34.663,112.405,61.1981,217.991,324.786,877.136,7.26216,103.564
462.9,15616.0,463.3017,1802.16,-11961,13813.8,1852.84,35.4707,115.299,62.9889,239.166,382.769,917.519,7.57082,92.057
462.8,15769.0,463.202,1968.62,-11851.4,13800.4,1949.01,36.307,118.305,64.8593,263.554,455.249,921.622,7.89949,81.2141
462.7,15814.0,463.102,2027.89,-11754.9,13786.1,2031.21,37.1731,121.43,66.8141,291.829,545.598,888.79,8.24994,71.3295
462.6,16150.0,463.002,2379.63,-11661.6,13770.4,2108.81,38.0705,124.68,68.8585,324.841,657.025,824.17,8.62414,62.5377
462.5,16164.0,462.9017,2410.74,-11558.8,13753.3,2194.48,39.0008,128.062,70.998,363.673,791.651,737.219,9.02426,54.8538
462.4,16201.0,462.802,2465.15,-11435.4,13735.9,2300.5,39.9656,131.583,73.2386,409.711,949.167,639.165,9.45274,48.2161
462.3,16257.0,462.702,2539.02,-11283.3,13718,2434.66,40.9666,135.25,75.5868,464.735,1125.28,540.415,9.91231,42.5215
462.2,16472.0,462.602,2772.99,-11101.6,13699,2597.45,42.0056,139.073,78.0494,531.022,1310.47,448.764,10.406,37.6514
462.1,16602.0,462.502,2923.33,-10897.4,13678.7,2781.28,43.0845,143.059,80.6341,611.457,1489.88,368.737,10.9374,33.4877
462.0,16795.0,462.4017,3137.97,-10684.5,13657,2972.48,44.2055,147.218,83.3491,709.609,1644.74,301.926,11.5102,29.922
461.9,16811.0,462.302,3176.52,-10479,13634.5,3155.46,45.3708,151.56,86.2031,829.727,1755.76,247.844,12.1289,26.8592
461.8,17016.0,462.202,3405.03,-10293.2,13611,3317.74,46.5827,156.097,89.206,976.519,1807.45,204.871,12.7984,24.2179
461.7,17059.0,462.102,3472.58,-10132.2,13586.4,3454.24,47.8437,160.838,92.3681,1154.59,1792.14,171.001,13.5246,21.9303
461.6,17394.0,462.002,3833.68,-9991.57,13560.3,3568.75,49.1565,165.798,95.7009,1367.4,1712.14,144.301,14.3138,19.9397
461.5,17401.0,461.9017,3868.18,-9860.93,13532.8,3671.9,50.5241,170.989,99.2168,1615.61,1579.05,123.128,15.1735,18.1995
461.4,17433.0,461.802,3928.02,-9728.96,13505,3776.02,51.9494,176.425,102.929,1895.11,1410.65,106.177,16.1122,16.6711
461.3,17469.0,461.702,3992.3,-9587.79,13476.7,3888.91,53.4357,182.123,106.854,2195.11,1226.47,92.4534,17.1399,15.3228
461.2,17647.0,461.602,4199.55,-9438.75,13447.4,4008.7,54.9867,188.099,111.006,2497.15,1043.85,81.2123,18.2679,14.1282
461.1,17752.0,461.502,4335.03,-9294.83,13417,4122.14,56.606,194.37,115.404,2775.99,875.299,71.9001,19.5095,13.0654
461.0,17795.0,461.4017,4409.26,-9178.6,13385.7,4207.14,58.2978,200.957,120.068,3002.85,727.872,64.1041,20.8804,12.1162
460.9,17632.0,461.302,4277.27,-9116.01,13354.7,4238.72,60.0664,207.879,125.019,3150.7,603.874,57.5136,22.3987,11.2652
460.8,17698.0,461.202,4374.17,-9127.37,13323.8,4196.46,61.9165,215.161,130.281,3200.3,502.33,51.8929,24.0858,10.4995
460.7,17491.0,461.102,4197.78,-9222.45,13293.2,4070.77,63.8533,222.826,135.881,3144.89,420.481,47.0606,25.9671,9.80843
460.6,17199.0,461.002,3934.82,-9398.46,13264.2,3865.72,65.8822,230.9,141.847,2992,354.959,42.8756,28.0728,9.18261
460.5,16844.0,460.9017,3606.75,-9639.36,13237.3,3597.89,68.0091,239.413,148.213,2761.47,302.5,39.2272,30.4389,8.6142
460.4,16619.0,460.802,3406.79,-9920.45,13212.2,3291.76,70.2405,248.396,155.013,2480.59,260.287,36.027,33.1084,8.09648
460.3,16507.0,460.702,3318.81,-10214.4,13188.2,2973.81,72.5832,257.882,162.288,2178.05,226.047,33.2045,36.1333,7.62366
460.2,16149.0,460.602,2983.32,-10498.4,13165.7,2667.29,75.0447,267.907,170.082,1878.78,198.005,30.7023,39.5763,7.19075
460.1,15775.0,460.502,2629.36,-10756.6,13145.6,2389,77.6334,278.513,178.444,1600.82,174.81,28.4735,43.5131,6.7934
460.0,15426.0,460.4017,2297.95,-10979.6,13128,2148.44,80.3579,289.741,187.43,1354.54,155.432,26.4797,48.0358,6.42788
459.9,15178.0,460.302,2065.54,-11163.6,13112.5,1948.82,83.2279,301.64,197.102,1143.73,139.093,24.6888,53.2554,6.09088
459.8,14844.0,460.202,1745.14,-11309.9,13098.9,1788.91,86.2541,314.261,207.528,967.512,125.195,23.0742,59.3063,5.77955
459.7,14816.0,460.102,1729.55,-11421.5,13086.4,1664.97,89.4478,327.659,218.786,822.341,113.279,21.6134,66.3484,5.49135
459.6,14778.0,460.002,1703.81,-11501.9,13074.2,1572.32,92.8217,341.898,230.963,703.574,102.986,20.2874,74.5698,5.22407
459.5,14727.0,459.9017,1664.84,-11555.8,13062.2,1506.39,96.3894,357.043,244.158,606.52,94.0351,19.0801,84.1855,4.97573
459.4,14746.0,459.802,1695.84,-11587,13050.2,1463.14,100.166,373.17,258.481,526.966,86.2037,17.9776,95.4304,4.74461
459.3,14641.0,459.702,1602.62,-11599.1,13038.4,1439.32,104.168,390.358,274.056,461.38,79.3123,16.9683,108.543,4.52915
459.2,14608.0,459.602,1580.99,-11594.6,13027,1432.37,108.415,408.698,291.026,406.914,73.2165,16.0418,123.733,4.32797
459.1,14494.0,459.502,1477.91,-11575.7,13016.1,1440.35,112.925,428.288,309.551,361.322,67.7983,15.1894,141.133,4.13985
459.0,14570.0,459.4017,1564.78,-11543.5,13005.2,1461.68,117.721,449.236,329.812,322.85,62.9608,14.4032,160.729,3.96369
458.9,14611.0,459.302,1617.14,-11498.8,12993.9,1495.01,122.828,471.664,352.018,290.13,58.6239,13.6767,182.275,3.79849
458.8,14673.0,459.202,1690.95,-11443,12982,1539.06,128.274,495.705,376.406,262.093,54.7208,13.0038,205.211,3.64338
458.7,14833.0,459.102,1863.65,-11376.9,12969.4,1592.43,134.087,521.509,403.248,237.901,51.1954,12.3796,228.608,3.49754
458.6,14876.0,459.002,1920.16,-11302.2,12955.8,1653.62,140.304,549.24,432.856,216.889,48.0005,11.7993,251.172,3.36026
458.5,14839.0,458.9017,1896.79,-11221.1,12942.2,1721.09,146.96,579.087,465.592,198.53,45.0959,11.2589,271.335,3.23088
458.4,14924.0,458.802,1995.69,-11134.9,12928.3,1793.38,154.099,611.257,501.872,182.398,42.4476,10.7548,287.44,3.10881
458.3,15077.0,458.702,2163.54,-11044.1,12913.5,1869.39,161.769,645.987,542.181,168.148,40.0262,10.284,297.999,2.99351
458.2,14878.0,458.602,1979.33,-10950,12898.7,1948.64,170.021,683.542,587.082,155.501,37.8065,9.84339,301.957,2.88449
458.1,14874.0,458.502,1989.51,-10853,12884.5,2031.48,178.918,724.226,637.231,144.226,35.7666,9.43057,298.903,2.7813
458.0,14963.0,458.4017,2093.08,-10750.7,12869.9,2119.21,188.527,768.382,693.397,134.132,33.8877,9.04322,289.155,2.68354
457.9,15183.0,458.302,2328.88,-10640.1,12854.1,2213.98,198.925,816.404,756.471,125.06,32.1532,8.67929,273.693,2.59083
457.8,15255.0,458.202,2417.83,-10518.5,12837.2,2318.67,210.202,868.745,827.491,116.877,30.5487,8.33691,253.964,2.50283
457.7,15450.0,458.102,2630.85,-10382.5,12819.1,2436.62,222.458,925.926,907.646,109.471,29.0614,8.01443,231.62,2.41923
457.6,15516.0,458.002,2715.95,-10228.7,12800.1,2571.37,235.808,988.551,998.28,102.746,27.6803,7.71032,208.251,2.33974
457.5,15752.0,457.9017,2972.26,-10053.3,12779.7,2726.47,250.385,1057.32,1100.86,96.6219,26.3955,7.42321,185.195,2.2641
457.4,15809.0,457.802,3050.77,-9852.92,12758.2,2905.32,266.345,1133.06,1216.91,91.0291,25.1982,7.15187,163.429,2.19206
457.3,16112.0,457.702,3376.72,-9624.27,12735.3,3111.01,283.864,1216.73,1347.85,85.9078,24.0805,6.89515,143.559,2.12339
457.2,16236.0,457.602,3525.37,-9364.46,12710.6,3346.17,303.15,1309.47,1494.73,81.2067,23.0357,6.65202,125.868,2.0579
457.1,16689.0,457.502,4005.26,-9071.08,12683.7,3612.66,324.448,1412.61,1657.85,76.8809,22.0575,6.42154,110.396,1.99539
457.0,16901.0,457.4017,4246.73,-8743.17,12654.3,3911.1,348.041,1527.74,1836.13,72.8917,21.1404,6.20285,97.0245,1.93567
456.9,17069.0,457.302,4445.77,-8382.91,12623.2,4240.33,374.268,1656.76,2026.39,69.205,20.2793,5.99515,85.5501,1.8786
456.8,17319.0,457.202,4728.53,-7993.75,12590.5,4596.72,403.53,1801.9,2222.67,65.7909,19.4699,5.79772,75.7361,1.824
456.7,17425.0,457.102,4868.8,-7582.37,12556.2,4973.83,436.305,1965.85,2415.62,62.6233,18.7079,5.60989,67.3461,1.77175
456.6,17963.0,457.002,5443.62,-7156.94,12519.4,5362.44,473.169,2151.76,2592.52,59.679,17.9899,5.43105,60.162,1.72171
456.5,18142.0,456.9017,5662.28,-6728.25,12479.7,5751.47,514.817,2363.37,2738.1,56.9376,17.3125,5.26064,53.9919,1.67376
456.4,18670.0,456.802,6232.76,-6307.39,12437.2,6129.85,562.094,2605,2836.31,54.3807,16.6726,5.09813,48.6723,1.62777
456.3,19197.0,456.702,6806.32,-5901.53,12390.7,6489.15,616.038,2881.51,2872.95,51.9923,16.0676,4.94303,44.0658,1.58366
456.2,19230.0,456.602,6888.22,-5515.46,12341.8,6826.31,677.927,3198.18,2838.56,49.7578,15.495,4.79492,40.0583,1.54131
456.1,19488.0,456.502,7196.52,-5145.82,12291.5,7145.67,749.351,3560.18,2730.81,47.6643,14.9524,4.65337,36.5558,1.50064
456.0,19950.0,456.4017,7711.75,-4779.17,12238.2,7459.07,832.303,3971.64,2555.53,45.7001,14.4379,4.518,33.4803,1.46155
455.9,20272.0,456.302,8090.18,-4398.25,12181.8,7783.57,929.303,4433.93,2325.95,43.8549,13.9495,4.38845,30.7677,1.42397
455.8,20408.0,456.202,8284.66,-3987.07,12123.3,8136.27,1043.56,4942.65,2060.44,42.1193,13.4855,4.26441,28.3648,1.38781
455.7,20702.0,456.102,8639.09,-3535.85,12062.9,8527.06,1179.19,5483.48,1779.13,40.4846,13.0442,4.14555,26.2275,1.35302
455.6,21115.0,456.002,9115.49,-3048.83,11999.5,8950.68,1341.55,6027.18,1500.72,38.9433,12.6243,4.03159,24.3188,1.31952
455.5,21489.0,455.9017,9556.17,-2551.75,11932.8,9381.08,1537.57,6525.98,1240,37.4884,12.2244,3.92228,22.6079,1.28724
455.4,21564.0,455.802,9699.93,-2091.73,11864.1,9772.34,1776.38,6915.13,1006.74,36.1135,11.8431,3.81735,21.069,1.25613
455.3,21873.0,455.702,10079.6,-1723.19,11793.4,10070.2,2069.86,7123.76,805.714,34.8128,11.4795,3.71658,19.6801,1.22614
455.2,22120.0,455.602,10399.7,-1486.16,11720.3,10234.2,2433.31,7095.26,637.633,33.5812,11.1323,3.61975,18.4226,1.1972
455.1,22159.0,455.502,10513.4,-1385.01,11645.6,10260.6,2885.39,6809.66,500.39,32.4138,10.8007,3.52666,17.2806,1.16928
455.0,21996.0,455.4017,10425.1,-1376.96,11570.9,10193.9,3445.83,6295.13,390.327,31.3062,10.4836,3.43711,16.2405,1.14232
454.9,21779.0,455.302,10282.1,-1386.13,11496.9,10110.8,4127.27,5620.12,303.208,30.2544,10.1804,3.35093,15.2908,1.11629
454.8,21541.0,455.202,10116.9,-1346.02,11424.1,10078.1,4915.2,4870.05,234.871,29.2548,9.89008,3.26796,14.4214,1.09113
454.7,21680.0,455.102,10328.9,-1259.56,11351.1,10091.5,5731.82,4122.3,181.584,28.3039,9.61203,3.18803,13.6234,1.06681
454.6,21287.0,455.002,10008.6,-1259.38,11278.4,10019.1,6394.09,3431,140.186,27.3986,9.34555,3.111,12.8895,1.04329
454.5,20832.0,454.9017,9623.67,-1609.93,11208.3,9598.4,6613.95,2824.46,108.093,26.5361,9.09,3.03673,12.2129,1.02055
454.4,19868.0,454.802,8725.19,-2577.86,11142.8,8564.95,6120.89,2310.7,83.2463,25.7136,8.8448,2.96509,11.5879,0.998537
454.3,18245.0,454.702,7158.91,-4184.69,11086.1,6901.4,4903.76,1885.19,64.0247,24.9288,8.60939,2.89596,11.0094,0.977229
454.2,16150.0,454.602,5107.72,-6077.98,11042.3,4964.31,3330.87,1537.45,49.1649,24.1794,8.38326,2.82921,10.4729,0.956596
454.1,14305.0,454.502,3292.71,-7763.53,11012.3,3248.76,1910.51,1255.25,37.6857,23.4633,8.16593,2.76475,9.97449,0.936609
454.0,13159.0,454.4017,2166.21,-8959.86,10992.8,2032.93,933.361,1026.88,28.8267,22.7785,7.95694,2.70247,9.51066,0.917241
453.9,12387.0,454.302,1406.97,-9680.12,10980,1299.91,393.349,842.068,21.9983,22.1233,7.75588,2.64227,9.0783,0.898468
453.8,11879.0,454.202,907.23,-10077,10971.8,894.729,144.525,692.264,16.7433,21.496,7.56234,2.58406,8.67464,0.880264
453.7,11715.0,454.102,749.144,-10296.1,10965.9,669.786,46.6024,570.519,12.7069,20.8949,7.37596,2.52776,8.2972,0.862608
453.6,11522.0,454.002,560.822,-10428.3,10961.2,532.893,13.2288,471.273,9.61336,20.3187,7.19639,2.47327,7.94378,0.845478
453.5,11625.0,453.9017,668.211,-10518.5,10956.8,438.314,3.30845,390.106,7.24857,19.7661,7.0233,2.42053,7.61237,0.828852
453.4,11510.0,453.802,557.588,-10586.2,10952.4,366.26,0.728622,323.51,5.44598,19.2356,6.85638,2.36946,7.30121,0.812711
453.3,11426.0,453.702,477.284,-10640.2,10948.7,308.468,0.141141,268.703,4.07626,18.7263,6.69535,2.31998,7.00868,0.797037
453.2,11364.0,453.602,418.482,-10684.4,10945.5,261.098,0.024014,223.471,3.03899,18.2369,6.53992,2.27205,6.73333,0.781812
453.1,11337.0,453.502,394.385,-10720.7,10942.6,221.929,0.00358348,186.046,2.25634,17.7664,6.38985,2.22558,6.47384,0.767019
453.0,11325.0,453.4017,385.169,-10750.4,10939.8,189.401,0.000468352,155.011,1.66809,17.3139,6.24488,2.18052,6.22902,0.752641
452.9,11296.0,453.302,358.826,-10774.9,10937.2,162.309,5.35434e-05,129.224,1.22775,16.8785,6.10479,2.13682,5.99779,0.738664
452.8,11248.0,453.202,313.225,-10795.1,10934.8,139.69,5.34815e-06,107.764,0.899534,16.4593,5.96937,2.09442,5.77917,0.725072
452.7,11206.0,453.102,273.32,-10811.9,10932.7,120.766,4.66244e-07,89.8783,0.655977,16.0556,5.8384,2.05327,5.57225,0.711852
452.6,11113.0,453.002,181.946,-10826.2,10931.1,104.899,3.54433e-08,74.9567,0.476072,15.6665,5.7117,2.01333,5.37622,0.698989
452.5,11035.0,452.9017,104.97,-10838.5,10930,91.5729,2.34752e-09,62.4973,0.343814,15.2914,5.58908,1.97453,5.19034,0.686472
452.4,11128.0,452.802,199.056,-10848.6,10928.9,80.3598,1.35363e-10,52.0878,0.247056,14.9295,5.47036,1.93685,5.0139,0.674288
452.3,11051.0,452.702,123.207,-10856.9,10927.8,70.9093,6.79261e-12,43.3879,0.176623,14.5804,5.35539,1.90024,4.84629,0.662426
452.2,11078.0,452.602,151.187,-10863.9,10926.8,62.9313,2.81681e-13,36.1158,0.125616,14.2434,5.24401,1.86465,4.68693,0.650873
452.1,11067.0,452.502,141.231,-10869.6,10925.8,56.1854,0.0,30.0375,0.0888685,13.918,5.13607,1.83006,4.53529,0.63962
452.0,11063.0,452.4017,138.229,-10874.3,10924.8,50.4718,0.0,24.9584,0.0625355,13.6035,5.03142,1.79642,4.39087,0.628656
451.9,11147.0,452.302,223.52,-10877.9,10923.5,45.6242,0.0,20.716,0.0437671,13.2996,4.92995,1.7637,4.25323,0.617972
451.8,11122.0,452.202,200.033,-10880.5,10922,41.5037,0.0,17.1745,0.0304638,13.0058,4.83151,1.73186,4.12195,0.607557
451.7,10977.0,452.102,55.9471,-10883.1,10921.1,37.994,0.0,14.2204,0.0210866,12.7216,4.73599,1.70088,3.99665,0.597403
451.6,11161.0,452.002,241.007,-10885,10920,34.9979,0.0,11.7583,0.0145141,12.4466,4.64328,1.67073,3.87696,0.587502
451.5,11178.0,451.9017,259.796,-10885.8,10918.2,32.4339,0.0,9.7084,0.00993364,12.1805,4.55326,1.64137,3.76256,0.577845
451.4,10929.0,451.802,11.7655,-10887,10917.2,30.2333,0.0,8.00362,0.00675992,11.9228,4.46584,1.61277,3.65314,0.568423
451.3,11108.0,451.702,191.491,-10888.2,10916.5,28.3388,0.0,6.5876,0.00457369,11.6732,4.38091,1.58492,3.54842,0.559231
451.2,11149.0,451.602,234.011,-10888.3,10915,26.7019,0.0,5.41303,0.00307655,11.4313,4.29838,1.55778,3.44813,0.550259
451.1,10957.0,451.502,43.0,-10888.7,10914.0,25.2821,0.0,4.44014,0.00205738,11.1969,4.21817,1.53134,3.35202,0.541501
451.0,10914.0,451.4017,0.0,-10890,10914.0,24.045,0.0,3.63553,0.00136772,10.9696,4.14018,1.50556,3.25988,0.532951
450.9,10987.0,451.302,73.0,-10891,10914.0,22.9621,0.0,2.97119,0.000903854,10.7492,4.06433,1.48043,3.17147,0.524601
450.8,11033.0,451.202,119.0,-10892,10914.0,22.009,0.0,2.42359,0.000593745,10.5353,3.99054,1.45592,3.08661,0.516446
450.7,11007.0,451.102,93.0,-10892.8,10914.0,21.1655,0.0,1.97303,0.000387692,10.3278,3.91875,1.43201,3.0051,0.50848
450.6,11100.0,451.002,186.0,-10893.6,10914.0,20.4146,0.0,1.60298,0.000251619,10.1263,3.84888,1.40869,2.92678,0.500696
450.5,11078.0,450.9017,164.0,-10894.3,10914.0,19.7419,0.0,1.29966,0.000162315,9.93068,3.78086,1.38594,2.85148,0.49309
450.4,11067.0,450.802,153.0,-10894.9,10914.0,19.1353,0.0,1.0515,0.000104067,9.74067,3.71463,1.36373,2.77904,0.485656
450.3,11176.0,450.702,262.0,-10895.4,10914.0,18.5849,0.0,0.848906,6.63135e-05,9.55606,3.65013,1.34205,2.70932,0.478389
450.2,11095.0,450.602,181.0,-10895.9,10914.0,18.0822,0.0,0.683844,4.1996e-05,9.37665,3.58729,1.32089,2.64219,0.471283
450.1,11141.0,450.502,227.0,-10896.4,10914.0,17.6201,0.0,0.549651,2.64314e-05,9.20224,3.52606,1.30022,2.57753,0.464334
450.0,11032.0,450.4017,118.0,-10896.8,10914.0,17.1926,0.0,0.440792,1.65322e-05,9.03266,3.46638,1.28003,2.5152,0.457538