File: XPS/LG4X-result/MX-UT-0.5-3-C1s.csv
#No of rows lightened (2D detector)1(if not using 2D detector, value is 1 and can be ignored!)
raw_x,raw_y,corrected x,data-bg,sum_components,bg,sum_fit,C=C,pi-pi,pi-pi2,C-C,C-O,C_6,TiC
294.7,745.0,295.353,12.0,-684.579,733.0,48.4212,17.29,23.5611,0.0,0.239492,7.04886,0.0,0.28177
294.6,733.0,295.253,0.0,-682.984,733.0,50.0159,17.6131,24.6664,0.0,0.244251,7.20612,0.0,0.286049
294.5,747.0,295.1528,14.0216,-681.273,732.978,51.7051,17.9454,25.8515,0.0,0.249154,7.36868,0.0,0.290427
294.4,772.0,295.053,39.1032,-679.399,732.897,53.4973,18.2871,27.1244,0.0,0.254206,7.53678,0.0,0.294906
294.3,787.0,294.953,54.2467,-677.351,732.753,55.402,18.6387,28.4937,0.0,0.259414,7.71067,0.0,0.299489
294.2,801.0,294.853,68.4353,-675.135,732.565,57.4296,19.0005,29.9695,0.0,0.264783,7.89062,0.0,0.30418
294.1,845.0,294.753,112.714,-672.694,732.286,59.592,19.373,31.5628,0.0,0.270321,8.07691,0.0,0.308982
294.0,795.0,294.6528,62.9839,-670.113,732.016,61.9026,19.7566,33.2863,0.0,0.276035,8.26985,0.0,0.313898
293.9,828.0,294.553,96.2287,-667.395,731.771,64.3764,20.1516,35.1541,0.0,0.281932,8.46975,0.0,0.318933
293.8,824.0,294.453,92.5189,-664.451,731.481,67.0301,20.5586,37.1824,0.0,0.288021,8.67694,0.0,0.324091
293.7,783.0,294.353,51.7407,-661.376,731.259,69.8829,20.9781,39.3893,0.0,0.294309,8.8918,0.0,0.329374
293.6,792.0,294.253,60.9139,-658.13,731.086,72.9563,21.4106,41.7954,0.0,0.300806,9.11468,0.0,0.334787
293.5,782.0,294.1528,51.086,-654.64,730.914,76.2743,21.8565,44.4239,0.0,0.307521,9.34601,0.0,0.340335
293.4,783.0,294.053,52.2449,-650.891,730.755,79.8643,22.3166,47.3011,0.0,0.314464,9.58621,0.0,0.346022
293.3,805.0,293.953,74.4397,-646.803,730.56,83.7569,22.7913,50.4563,0.0,0.321644,9.83574,0.0,0.351853
293.2,821.0,293.853,90.6935,-642.32,730.306,87.986,23.2813,53.9227,0.0,0.329074,10.0951,0.0,0.357832
293.1,803.0,293.753,72.9451,-637.465,730.055,92.5899,23.7873,57.7371,0.0,0.336765,10.3647,0.0,0.363966
293.0,804.0,293.6528,74.1713,-632.218,729.829,97.6104,24.31,61.9402,0.0,0.344729,10.6453,0.0,0.370258
292.9,823.0,293.553,93.4289,-626.477,729.571,103.094,24.8501,66.5767,0.0,0.35298,10.9373,0.0,0.376715
292.8,782.0,293.453,52.6535,-620.257,729.346,109.09,25.4084,71.6951,0.0,0.361531,11.2414,0.0,0.383342
292.7,817.0,293.353,87.8695,-613.478,729.13,115.652,25.9857,77.3475,0.0,0.370397,11.5583,0.0,0.390145
292.6,837.0,293.253,108.171,-605.992,728.829,122.837,26.583,83.5883,0.0,0.379594,11.8887,0.0,0.397132
292.5,829.0,293.1528,100.492,-597.807,728.508,130.701,27.201,90.4734,0.0,0.389139,12.2334,0.0,0.404307
292.4,854.0,293.053,125.84,-588.857,728.16,139.304,27.8409,98.0589,0.0,0.399049,12.5931,0.0,0.411679
292.3,881.0,292.953,153.269,-579.032,727.731,148.699,28.5036,106.398,0.0,0.409343,12.9688,0.0,0.419255
292.2,913.0,292.853,185.79,-568.271,727.21,158.939,29.1903,115.54,0.0,0.420042,13.3615,0.0,0.427041
292.1,859.0,292.753,132.279,-556.657,726.721,170.064,29.9021,125.523,0.0,0.431167,13.7721,0.0,0.435047
292.0,922.0,292.6528,195.783,-544.112,726.217,182.104,30.6403,136.376,0.0,0.44274,14.2018,0.0,0.443279
291.9,940.0,292.553,214.414,-530.513,725.586,195.073,31.4061,148.109,0.0,0.454787,14.6517,0.0,0.451748
291.8,913.0,292.453,188.033,-516.006,724.967,208.962,32.201,160.71,0.0,0.467334,15.1232,0.0,0.460461
291.7,918.0,292.353,193.619,-500.646,724.381,223.735,33.0264,174.141,0.0,0.480409,15.6175,0.0,0.469429
291.6,959.0,292.253,235.279,-484.394,723.721,239.327,33.8841,188.334,0.0,0.494042,16.1363,0.0,0.478662
291.5,931.0,292.1528,207.96,-467.402,723.04,255.637,34.7755,203.184,0.0,0.508265,16.6811,0.0,0.48817
291.4,996.0,292.053,273.701,-449.771,722.299,272.529,35.7027,218.551,0.0,0.523113,17.2537,0.0,0.497964
291.3,1036.0,291.953,314.605,-431.57,721.395,289.824,36.6673,234.255,0.0,0.538623,17.8559,0.0,0.508055
291.2,1077.0,291.853,356.637,-413.052,720.363,307.311,37.6717,250.077,0.0,0.554835,18.4898,0.0,0.518457
291.1,1082.0,291.753,362.743,-394.516,719.257,324.741,38.7179,265.765,0.0,0.571793,19.1578,0.0,0.529181
291.0,1078.0,291.6528,359.854,-376.309,718.146,341.837,39.8082,281.037,0.0,0.589543,19.8621,0.0,0.540241
290.9,1146.0,291.553,429.067,-358.632,716.933,358.301,40.9453,295.591,0.0,0.608135,20.6055,0.0,0.551652
290.8,1060.0,291.453,344.256,-341.919,715.744,373.825,42.1318,309.111,0.0,0.627624,21.3909,0.0,0.563428
290.7,1111.0,291.353,396.394,-326.504,714.606,388.102,43.3707,321.286,0.0,0.648068,22.2215,0.0,0.575586
290.6,1128.0,291.253,414.641,-312.519,713.359,400.839,44.665,331.816,0.0,0.669531,23.1007,0.0,0.588141
290.5,1132.0,291.1528,419.924,-300.302,712.076,411.774,46.0181,340.431,0.0,0.692083,24.0323,0.0,0.601111
290.4,1156.0,291.053,445.254,-290.062,710.746,420.684,47.4337,346.899,0.0,0.715799,25.0206,0.0,0.614515
290.3,1121.0,290.953,411.571,-282.029,709.429,427.4,48.9156,351.045,0.0,0.740759,26.0701,0.0,0.628373
290.2,1152.0,290.853,443.887,-276.299,708.113,431.815,50.4681,352.751,0.0,0.767054,27.1859,0.0,0.642705
290.1,1172.0,290.753,465.284,-272.825,706.716,433.891,52.0956,351.969,0.0,0.79478,28.3736,0.0,0.657532
290.0,1152.0,290.6528,446.686,-271.652,705.314,433.662,53.8032,348.722,0.0,0.824045,29.6395,0.0,0.672879
289.9,1103.0,290.553,398.986,-272.782,704.014,431.232,55.5962,343.101,0.0,0.854964,30.9903,0.0,0.68877
289.8,1120.0,290.453,417.241,-275.99,702.759,426.769,57.4803,335.262,0.0,0.887665,32.4337,0.0,0.70523
289.7,1103.0,290.353,401.5,-281,701.5,420.5,59.4618,325.416,0.0,0.922288,33.9782,0.0,0.722287
289.6,1103.0,290.253,402.736,-287.564,700.264,412.699,61.5476,313.82,0.0,0.958988,35.6332,0.0,0.73997
289.5,1070.0,290.1528,370.926,-295.399,699.074,403.675,63.7452,300.764,0.0,0.997936,37.4091,0.0,0.758311
289.4,1031.0,290.053,333.008,-304.236,697.992,393.756,66.0625,286.558,0.0,1.03932,39.3179,0.0,0.777342
289.3,1040.0,289.953,343.047,-313.673,696.953,383.279,68.5086,271.518,0.0,1.08335,41.3726,0.0,0.797099
289.2,1031.0,289.853,335.09,-323.331,695.91,372.579,71.0931,255.95,0.0,1.13025,43.5882,0.0,0.817619
289.1,1053.0,289.753,358.156,-332.871,694.844,361.974,73.8267,240.147,0.0,1.18029,45.9812,0.0,0.838941
289.0,1051.0,289.6528,357.255,-341.986,693.745,351.758,76.7211,224.372,0.0,1.23375,48.5705,0.0,0.861109
288.9,1086.0,289.553,393.41,-350.393,692.59,342.198,79.7891,208.856,0.0,1.29096,51.3773,0.0,0.884167
288.8,1046.0,289.453,354.559,-357.914,691.441,333.526,83.0449,193.795,0.0,1.35227,54.4259,0.0,0.908163
288.7,980.0,289.353,289.55,-364.508,690.45,325.942,86.5041,179.343,0.0,1.41809,57.7435,0.0,0.93315
288.6,996.0,289.253,306.466,-369.922,689.534,319.612,90.1841,165.618,0.0,1.48887,61.3614,0.0,0.959182
288.5,1017.0,289.1528,328.442,-373.885,688.558,314.673,94.1041,152.702,0.0,1.56514,65.3151,0.0,0.986319
288.4,1016.0,289.053,328.452,-376.312,687.548,311.236,98.2853,140.644,0.0,1.64749,69.6452,0.0,1.01462
288.3,1018.0,288.953,331.466,-377.14,686.534,309.394,102.752,129.463,0.0,1.73657,74.3982,0.0,1.04417
288.2,985.0,288.853,299.436,-376.34,685.564,309.224,107.529,119.158,0.0,1.83316,79.6277,0.0,1.07502
288.1,1016.0,288.753,331.406,-373.798,684.594,310.796,112.648,109.707,0.0,1.93814,85.395,0.0,1.10725
288.0,1014.0,288.6528,330.424,-369.396,683.576,314.181,118.142,101.074,0.0,2.0525,91.7708,0.0,1.14096
287.9,1046.0,288.553,363.49,-363.058,682.51,319.452,124.047,93.214,0.0,2.17744,98.8365,0.0,1.17624
287.8,1045.0,288.453,363.608,-354.697,681.392,326.695,130.407,86.0744,0.0,2.3143,106.686,0.0,1.21317
287.7,1060.0,288.353,379.751,-344.236,680.249,336.013,137.269,79.6002,0.0,2.46469,115.427,0.0,1.25187
287.6,1087.0,288.253,407.962,-331.509,679.038,347.529,144.686,73.7352,0.0,2.63047,125.184,0.0,1.29246
287.5,1121.0,288.1528,443.271,-316.335,677.729,361.394,152.722,68.4241,0.0,2.81386,136.099,0.0,1.33505
287.4,1056.0,288.053,379.536,-298.672,676.464,377.792,161.445,63.6139,0.0,3.0175,148.335,0.0,1.37978
287.3,1087.0,287.953,411.752,-278.309,675.248,396.939,170.938,59.2548,0.0,3.24455,162.075,0.0,1.42679
287.2,1106.0,287.853,432.049,-254.859,673.951,419.091,181.292,55.3007,0.0,3.49884,177.523,0.0,1.47625
287.1,1110.0,287.753,437.386,-228.072,672.614,444.542,192.615,51.7092,0.0,3.78501,194.904,0.0,1.52833
287.0,1179.0,287.6528,507.839,-197.541,671.161,473.619,205.03,48.4421,0.0,4.1088,214.456,0.0,1.58321
286.9,1159.0,287.553,489.372,-162.946,669.628,506.682,218.68,45.465,0.0,4.47735,236.418,0.0,1.6411
286.8,1207.0,287.453,538.953,-123.949,668.047,544.098,233.734,42.7471,0.0,4.89963,261.014,0.0,1.70223
286.7,1241.0,287.353,574.665,-80.1151,666.335,586.22,250.387,40.2611,0.0,5.38714,288.417,0.0,1.76684
286.6,1279.0,287.253,614.493,-31.1672,664.507,633.339,268.869,37.9825,0.0,5.95479,318.698,0.0,1.83519
286.5,1293.0,287.1528,630.407,23.029,662.593,685.622,289.451,35.8899,0.0,6.62243,351.751,0.0,1.90759
286.4,1404.0,287.053,743.519,82.5372,660.481,743.018,312.454,33.9643,0.0,7.41718,387.198,0.0,1.98436
286.3,1497.0,286.953,838.952,147.116,658.048,805.164,338.26,32.1888,0.0,8.37743,424.272,0.0,2.06586
286.2,1501.0,286.853,845.542,215.833,655.458,871.291,367.323,30.5485,0.0,9.56006,461.706,0.0,2.15249
286.1,1597.0,286.753,944.294,287.487,652.706,940.194,400.194,29.0304,0.0,11.0539,497.671,0.0,2.24468
286.0,1628.0,286.6528,978.249,360.576,649.751,1010.33,437.534,27.6226,0.0,13.0047,529.823,0.0,2.34292
285.9,1667.0,286.553,1020.32,433.431,646.678,1080.11,480.152,26.3149,0.0,15.6614,555.534,0.0,2.44775
285.8,1760.0,286.453,1116.61,505.074,643.393,1148.47,529.041,25.0981,0.0,19.4556,572.312,0.0,2.55978
285.7,1773.0,286.353,1133.07,575.606,639.935,1215.54,585.437,23.9639,0.0,25.1276,578.333,0.0,2.67968
285.6,1963.0,286.253,1326.85,647.253,636.153,1283.41,650.89,22.9052,0.0,33.9004,572.902,0.0,2.8082
285.5,1907.0,286.1528,1274.85,724.408,632.153,1356.56,727.38,21.9153,0.0,47.6728,556.646,0.0,2.9462
285.4,2098.0,286.053,1470.07,814.109,627.933,1442.04,817.472,20.9884,0.0,69.1451,531.341,0.0,3.09462
285.3,2190.0,285.953,1566.74,925.847,623.264,1549.11,924.552,20.1193,0.0,101.727,499.459,0.0,3.25455
285.2,2341.0,285.853,1722.79,1070.38,618.207,1688.58,1053.19,19.3034,0.0,149.035,463.631,0.0,3.4272
285.1,2492.0,285.753,1879.33,1259.25,612.67,1871.92,1209.69,18.5362,0.0,213.856,426.223,0.0,3.61396
285.0,2685.0,285.6528,2078.41,1503.8,606.585,2110.39,1403.02,17.8141,0.0,296.645,389.094,0.0,3.81641
284.9,2917.0,285.553,2317.17,1815.19,599.827,2415.02,1646.34,17.1335,0.0,393.973,353.54,0.0,4.03635
284.8,3365.0,285.453,2773,2206.39,592.002,2798.39,1959.65,16.4914,0.0,497.625,320.35,0.0,4.27587
284.7,3788.0,285.353,3205.19,2697.26,582.811,3280.08,2374.64,15.8848,0.0,595.094,289.921,0.0,4.53736
284.6,4275.0,285.253,3702.81,3326.04,572.191,3898.23,2943.92,15.3113,0.0,671.807,262.369,0.0,4.82358
284.5,5145.0,285.1528,4585.55,4171.59,559.449,4731.03,3758.8,14.7683,0.0,714.695,237.63,0.0,5.13777
284.4,6515.0,285.053,5971.78,5389.78,543.219,5933,4981.83,14.2539,0.0,715.903,215.536,0.0,5.48367
284.3,8704.0,284.953,8182.54,7256.39,521.458,7777.85,6887.15,13.766,0.0,675.206,195.865,0.0,5.8657
284.2,11668.0,284.853,11176.3,10131,491.697,10622.7,9824.68,13.3028,0.0,600.074,178.377,0.0,6.28909
284.1,15457.0,284.753,15005.6,14096.9,451.446,14548.3,13862.5,12.8626,0.0,503.379,162.834,0.0,6.76001
284.0,19016.0,284.6528,18616.2,18189.5,399.757,18589.3,18020.8,12.4441,0.0,399.709,149.011,0.0,7.28586
283.9,21076.0,284.553,20736.7,20217.9,339.258,20557.2,20098.8,12.0457,0.0,301.765,136.702,0.0,7.87552
283.8,18906.0,284.453,18627.3,18511.2,278.741,18790,18426,11.6662,0.0,218.029,125.722,0.0,8.53974
283.7,14300.0,284.353,14071.5,13924.1,228.471,14152.6,13863.9,11.3045,0.0,152.184,115.908,0.0,9.29165
283.6,9016.0,284.253,8822.73,8949.64,193.275,9142.91,8910.74,10.9593,0.0,103.955,107.117,0.0,10.1474
283.5,5126.0,284.1528,4953.9,5264.6,172.095,5436.69,5245.07,10.6298,0.0,70.6419,99.2245,0.0,11.1269
283.4,3091.0,284.053,2931.03,3039.57,159.973,3199.54,3036.21,10.315,0.0,48.6427,92.1205,0.0,12.2554
283.3,2020.0,283.953,1867.4,1796.71,152.596,1949.31,1805.5,10.014,0.0,34.5182,85.7109,0.0,13.5645
283.2,1402.0,283.853,1254.2,1098.16,147.797,1245.96,1115.7,9.72599,0.0,25.5226,79.9138,0.0,15.095
283.1,1070.0,283.753,925.554,689.114,144.446,833.56,712.837,9.4503,0.0,19.7148,74.6579,0.0,16.8996
283.0,875.0,283.6528,733.104,438.953,141.896,580.849,466.895,9.1862,0.0,15.8386,69.8815,0.0,19.048
282.9,711.0,283.553,571.109,280.523,139.891,420.414,311.186,8.93305,0.0,13.1318,65.5306,0.0,21.6331
282.8,600.0,283.453,461.697,177.736,138.303,316.04,209.86,8.69026,0.0,11.1493,61.5584,0.0,24.7816
282.7,495.0,283.353,357.957,110.233,137.043,247.276,142.591,8.45726,0.0,9.63445,57.924,0.0,28.6696
282.6,438.0,283.253,301.971,66.0753,136.029,202.104,97.2946,8.23353,0.0,8.43713,54.5915,0.0,33.5472
282.5,400.0,283.1528,264.843,38.1359,135.157,173.293,66.4991,8.01858,0.0,7.46615,51.5297,0.0,39.7796
282.4,392.0,283.053,257.646,22.1837,134.354,156.538,45.4357,7.81197,0.0,6.66328,48.7109,0.0,47.916
282.3,363.0,282.953,229.395,15.9021,133.605,149.507,30.9832,7.61326,0.0,5.98932,46.1108,0.0,58.8108
282.2,352.0,282.853,219.084,18.5369,132.916,151.453,21.0583,7.42206,0.0,5.41665,43.7081,0.0,73.8476
282.1,358.0,282.753,225.768,31.0309,132.232,163.263,14.2498,7.23799,0.0,4.92509,41.4837,0.0,95.3661
282.0,372.0,282.6528,240.485,56.5544,131.515,188.07,9.59136,7.0607,0.0,4.49948,39.421,0.0,127.497
281.9,396.0,282.553,265.262,101.914,130.738,232.651,6.41639,6.88986,0.0,4.12818,37.505,0.0,177.712
281.8,440.0,282.453,310.147,179.578,129.853,309.431,4.26332,6.72516,0.0,3.80209,35.7224,0.0,258.918
281.7,550.0,282.353,421.271,306.7,128.729,435.429,2.81189,6.56631,0.0,3.51397,34.0615,0.0,388.475
281.6,691.0,282.253,563.786,489.184,127.214,616.398,1.84,6.41303,0.0,3.25803,32.5115,0.0,572.376
281.5,899.0,282.1528,773.842,685.064,125.158,810.222,1.19403,6.26508,0.0,3.02957,31.063,0.0,768.67
281.4,1001.0,282.053,878.382,794.451,122.618,917.069,0.768094,6.12219,0.0,2.82471,29.7076,0.0,877.646
281.3,1020.0,281.953,900.116,741.774,119.884,861.658,0.48963,5.98415,0.0,2.64025,28.4375,0.0,824.106
281.2,898.0,281.853,780.701,565.165,117.299,682.464,0.3092,5.85073,0.0,2.47355,27.2458,0.0,646.585
281.1,645.0,281.753,529.715,368.789,115.285,484.074,0.193378,5.72174,0.0,2.32235,26.1264,0.0,449.71
281.0,448.0,281.6528,334.043,218.514,113.957,332.471,0.119746,5.59697,0.0,2.18477,25.0736,0.0,299.496
280.9,302.0,281.553,188.847,121.271,113.153,234.424,0.0734011,5.47625,0.0,2.05921,24.0823,0.0,202.733
280.8,254.0,281.453,141.355,60.9437,112.645,173.589,0.044529,5.3594,0.0,1.94428,23.1478,0.0,143.093
280.7,194.0,281.353,81.6974,22.5785,112.303,134.881,0.0267302,5.24626,0.0,1.83881,22.266,0.0,105.503
280.6,192.0,281.253,79.9459,-2.98364,112.054,109.07,0.0158747,5.13667,0.0,1.74177,21.433,0.0,80.7431
280.5,149.0,281.1528,37.1259,-20.8424,111.874,91.0317,0.00932573,5.03048,0.0,1.65229,20.6453,0.0,63.6942
280.4,156.0,281.053,44.251,-33.8528,111.749,77.8962,0.00541845,4.92756,0.0,1.56959,19.8998,0.0,51.4939
280.3,161.0,280.953,49.395,-43.6112,111.605,67.9938,0.00311332,4.82777,0.0,1.49299,19.1935,0.0,42.4765
280.2,181.0,280.853,69.5779,-51.1147,111.422,60.3075,0.0017688,4.73099,0.0,1.42192,18.5237,0.0,35.6291
280.1,140.0,280.753,28.729,-57.0794,111.271,54.1916,0.000993543,4.63709,0.0,1.35583,17.8881,0.0,30.3096
280.0,139.0,280.6528,27.8159,-61.9628,111.184,49.2213,0.000551704,4.54597,0.0,1.29428,17.2842,0.0,26.0963
279.9,143.0,280.553,31.9078,-65.9845,111.092,45.1078,0.000302827,4.45751,0.0,1.23686,16.7102,0.0,22.7029
279.8,162.0,280.453,51.0353,-69.3157,110.965,41.6491,0.000164291,4.37161,0.0,1.18319,16.164,0.0,19.9301
279.7,166.0,280.353,55.1986,-72.1008,110.801,38.7006,8.80899e-05,4.28818,0.0,1.13297,15.6439,0.0,17.6355
279.6,141.0,280.253,30.3301,-74.5134,110.67,36.1565,4.66766e-05,4.20711,0.0,1.0859,15.1483,0.0,15.7151
279.5,129.0,280.1528,18.405,-76.6572,110.595,33.9378,2.444e-05,4.12833,0.0,1.04171,14.6757,0.0,14.092
279.4,146.0,280.053,35.4879,-78.5277,110.512,31.9844,1.26446e-05,4.05174,0.0,1.00019,14.2247,0.0,12.7078
279.3,153.0,279.953,42.6079,-80.1419,110.392,30.2502,6.46365e-06,3.97726,0.0,0.961108,13.794,0.0,11.5178
279.2,137.0,279.853,26.7145,-81.5866,110.286,28.699,3.26437e-06,3.90483,0.0,0.924287,13.3824,0.0,10.4874
279.1,140.0,279.753,29.8014,-82.8966,110.199,27.3021,1.6287e-06,3.83435,0.0,0.889551,12.9888,0.0,9.58932
279.0,122.0,279.6528,11.8654,-84.098,110.135,26.0365,8.02756e-07,3.76577,0.0,0.856747,12.6122,0.0,8.80178
278.9,117.0,279.553,6.89427,-85.2219,110.106,24.8838,3.90844e-07,3.69902,0.0,0.825731,12.2517,0.0,8.10739
278.8,133.0,279.453,22.9401,-86.2312,110.06,23.8287,1.87967e-07,3.63403,0.0,0.796378,11.9063,0.0,7.49202
278.7,126.0,279.353,16.0,-87.1414,110.0,22.8586,8.92889e-08,3.57074,0.0,0.768568,11.5752,0.0,6.94412
278.6,110.0,279.253,0.0,-88.037,110.0,21.963,4.18923e-08,3.50909,0.0,0.742195,11.2576,0.0,6.45418
278.5,126.0,279.1528,16.0,-88.8667,110.0,21.1333,1.94122e-08,3.44902,0.0,0.717163,10.9528,0.0,6.01431
278.4,128.0,279.053,18.0,-89.638,110.0,20.362,8.88385e-09,3.39049,0.0,0.69338,10.6602,0.0,5.61792
278.3,139.0,278.953,29.0,-90.3573,110.0,19.6427,4.01514e-09,3.33343,0.0,0.670765,10.3791,0.0,5.25945
278.2,141.0,278.853,31.0,-91.0299,110.0,18.9701,1.79208e-09,3.27781,0.0,0.649242,10.1088,0.0,4.93422
278.1,144.0,278.753,34.0,-91.6605,110.0,18.3395,7.89872e-10,3.22356,0.0,0.628743,9.84898,0.0,4.63825
278.0,125.0,278.6528,15.0,-92.2531,110.0,17.7469,3.43785e-10,3.17066,0.0,0.609202,9.59895,0.0,4.36812
277.9,114.0,278.553,4.0,-92.8112,110.0,17.1888,1.47753e-10,3.11905,0.0,0.590561,9.35828,0.0,4.12092
277.8,118.0,278.453,8.0,-93.3379,110.0,16.6621,6.27043e-11,3.06869,0.0,0.572765,9.1265,0.0,3.89412
277.7,126.0,278.353,16.0,-93.836,110.0,16.164,2.62738e-11,3.01954,0.0,0.555765,8.90318,0.0,3.68554
277.6,141.0,278.253,31.0,-94.3077,110.0,15.6923,1.08698e-11,2.97156,0.0,0.539512,8.68792,0.0,3.49328
277.5,115.0,278.1528,5.0,-94.7553,110.0,15.2447,4.43986e-12,2.92472,0.0,0.523963,8.48034,0.0,3.31568
277.4,123.0,278.053,13.0,-95.1806,110.0,14.8194,1.79253e-12,2.87898,0.0,0.509079,8.28007,0.0,3.15128
277.3,137.0,277.953,27.0,-95.5853,110.0,14.4147,7.12154e-13,2.8343,0.0,0.494822,8.08678,0.0,2.99882
277.2,121.0,277.853,11.0,-95.9709,110.0,14.0291,2.81471e-13,2.79066,0.0,0.481157,7.90015,0.0,2.85715
277.1,117.0,277.753,7.0,-96.3388,110.0,13.6612,1.09275e-13,2.74802,0.0,0.468052,7.71987,0.0,2.72529