File: XPS/LG4X-result/MX-UT-0.1-1-Ti2p.csv
#No of rows lightened (2D detector)1(if not using 2D detector, value is 1 and can be ignored!)
raw_x,raw_y,corrected x,data-bg,sum_components,bg,sum_fit,C_1,C_2,C_3,C_4,C_5,C_6,C_7
467.5,14242.0,467.9195,286.0,-13712,13956.0,243.985,58.7562,29.8852,14.2204,5.59709,68.6051,47.7644,19.1563
467.4,14317.0,467.8195,361.0,-13706,13956.0,250.033,59.6602,30.3731,14.4788,5.71606,70.6156,49.2737,19.9156
467.3,14347.0,467.7195,391.0,-13699.7,13956.0,256.333,60.5853,30.8731,14.7444,5.83886,72.7154,50.8554,20.7207
467.2,14236.0,467.62,280.0,-13693.1,13956.0,262.9,61.5321,31.3855,15.0173,5.96565,74.9101,52.5142,21.5753
467.1,14411.0,467.52,455.0,-13686.2,13956.0,269.751,62.5011,31.9107,15.2979,6.09662,77.2053,54.2553,22.4836
467.0,14406.0,467.4195,450.0,-13679.1,13956.0,276.902,63.4933,32.4493,15.5864,6.23193,79.6073,56.084,23.45
466.9,14296.0,467.3195,340.0,-13671.6,13956.0,284.375,64.5093,33.0015,15.8832,6.37179,82.1228,58.0064,24.4796
466.8,14252.0,467.2195,296.0,-13663.8,13956.0,292.189,65.5498,33.568,16.1885,6.51641,84.759,60.0289,25.5781
466.7,14114.0,467.12,158.0,-13655.6,13956.0,300.367,66.6156,34.1492,16.5026,6.66599,87.5237,62.1587,26.7516
466.6,14075.0,467.02,119.0,-13647.1,13956.0,308.936,67.7077,34.7456,16.826,6.82078,90.4254,64.4033,28.0071
466.5,14229.0,466.9195,273.0,-13638.1,13956.0,317.921,68.8268,35.3577,17.159,6.98102,93.4733,66.7711,29.3523
466.4,14230.0,466.8195,274.0,-13628.6,13956.0,327.353,69.9738,35.9861,17.5019,7.14695,96.6773,69.2713,30.7959
466.3,14187.0,466.7195,231.0,-13618.7,13956.0,337.265,71.1498,36.6314,17.8553,7.31887,100.048,71.9138,32.3476
466.2,14017.0,466.62,61.0,-13608.3,13956.0,347.692,72.3556,37.2943,18.2194,7.49704,103.598,74.7097,34.0183
466.1,14149.0,466.52,193.0,-13597.3,13956.0,358.674,73.5923,37.9752,18.5947,7.6818,107.339,77.671,35.8205
466.0,14232.0,466.4195,276.0,-13585.7,13956.0,370.255,74.861,38.675,18.9818,7.87345,111.285,80.8108,37.7679
465.9,14111.0,466.3195,155.0,-13573.5,13956.0,382.483,76.1627,39.3942,19.381,8.07235,115.452,84.1438,39.8766
465.8,14240.0,466.2195,284.0,-13560.6,13956.0,395.411,77.4986,40.1337,19.793,8.27887,119.856,87.6859,42.1645
465.7,14146.0,466.12,190.0,-13546.9,13956.0,409.099,78.87,40.8942,20.2182,8.4934,124.516,91.455,44.6521
465.6,13956.0,466.02,0.0,-13532.4,13956.0,423.613,80.278,41.6764,20.6572,8.71635,129.452,95.4706,47.3629
465.5,14196.0,465.9195,240.86,-13516.1,13955.1,439.028,81.724,42.4814,21.1107,8.94818,134.685,99.7547,50.324
465.4,14139.0,465.8195,185.382,-13498.2,13953.6,455.425,83.2095,43.3098,21.5792,9.18937,140.24,104.331,53.5665
465.3,14162.0,465.7195,209.793,-13479.3,13952.2,472.899,84.7357,44.1626,22.0635,9.44041,146.143,109.228,57.1262
465.2,14305.0,465.62,354.809,-13458.6,13950.2,491.555,86.3043,45.0409,22.5643,9.70186,152.425,114.474,61.0448
465.1,14234.0,465.52,286.098,-13436.4,13947.9,511.512,87.9168,45.9456,23.0823,9.97429,159.118,120.104,65.3709
465.0,14107.0,465.4195,160.694,-13413.4,13946.3,532.904,89.5749,46.8778,23.6183,10.2583,166.258,126.156,70.161
464.9,14191.0,465.3195,246.146,-13389,13944.9,555.885,91.2803,47.8387,24.1731,10.5546,173.886,132.672,75.4814
464.8,14140.0,465.2195,196.728,-13362.6,13943.3,580.632,93.0347,48.8293,24.7477,10.8639,182.046,139.7,81.41
464.7,14437.0,465.12,496.202,-13333.5,13940.8,607.345,94.8402,49.851,25.343,11.187,190.79,147.295,88.0388
464.6,14440.0,465.02,502.77,-13301,13937.2,636.257,96.6987,50.905,25.96,11.5246,200.173,155.519,95.4762
464.5,14421.0,464.9195,487.305,-13266.1,13933.7,667.634,98.6123,51.9928,26.5997,11.8777,210.259,164.441,103.851
464.4,14451.0,464.8195,520.905,-13228.3,13930.1,701.787,100.583,53.1157,27.2633,12.2473,221.119,174.143,113.315
464.3,14676.0,464.7195,750.445,-13186.5,13925.6,739.074,102.614,54.2754,27.9521,12.6343,232.833,184.715,124.05
464.2,14554.0,464.62,633.387,-13140.7,13920.6,779.91,104.706,55.4734,28.6672,13.0398,245.492,196.264,136.268
464.1,14504.0,464.52,587.747,-13091.5,13916.3,824.779,106.863,56.7115,29.41,13.4652,259.198,208.909,150.222
464.0,14528.0,464.4195,616.046,-13037.7,13912,874.236,109.088,57.9914,30.182,13.9116,274.069,222.792,166.202
463.9,14687.0,464.3195,780.031,-12978,13907,928.922,111.382,59.3151,30.9848,14.3805,290.238,238.075,184.546
463.8,14834.0,464.2195,933.149,-12911.3,13900.9,989.557,113.75,60.6845,31.8199,14.8734,307.859,254.946,205.624
463.7,14872.0,464.12,977.974,-12837.1,13894,1056.94,116.193,62.1018,32.6892,15.392,327.106,273.628,229.829
463.6,15006.0,464.02,1119.46,-12754.6,13886.5,1131.91,118.717,63.5693,33.5945,15.9381,348.182,294.377,257.537
463.5,14957.0,463.9195,1078.31,-12663.4,13878.7,1215.31,121.323,65.0893,34.5379,16.5137,371.32,317.499,289.024
463.4,15102.0,463.8195,1231.56,-12562.6,13870.4,1307.8,124.015,66.6644,35.5214,17.1208,396.791,343.351,324.336
463.3,15354.0,463.7195,1493.29,-12451,13860.7,1409.74,126.799,68.2972,36.5474,17.7619,424.911,372.357,363.069
463.2,15466.0,463.62,1616.39,-12328.8,13849.6,1520.85,129.677,69.9907,37.6184,18.4394,456.046,405.019,404.061
463.1,15513.0,463.52,1675.15,-12198,13837.9,1639.89,132.653,71.7477,38.7371,19.1563,490.629,441.93,445.041
463.0,15449.0,463.4195,1622.93,-12061.6,13826.1,1764.44,135.734,73.5717,39.9062,19.9156,529.165,483.794,482.35
462.9,15616.0,463.3195,1802.16,-11922.9,13813.8,1890.9,138.922,75.4659,41.1289,20.7207,572.252,531.446,510.965
462.8,15769.0,463.2195,1968.62,-11785.2,13800.4,2015.18,142.224,77.4341,42.4085,21.5753,620.596,585.864,525.073
462.7,15814.0,463.12,2027.89,-11652.2,13786.1,2133.91,145.645,79.4802,43.7486,22.4836,675.031,648.189,519.334
462.6,16150.0,463.019,2379.63,-11524.1,13770.4,2246.3,149.191,81.6082,45.1529,23.45,736.549,719.728,490.62
462.5,16164.0,462.9195,2410.74,-11397.6,13753.3,2355.64,152.868,83.8226,46.6258,24.4796,806.324,801.933,439.592
462.4,16201.0,462.82,2465.15,-11265.9,13735.9,2469.92,156.682,86.1282,48.1716,25.5781,885.743,896.335,371.282
462.3,16257.0,462.7195,2539.02,-11117.3,13718,2600.68,160.64,88.5299,49.7953,26.7516,976.44,1004.39,294.133
462.2,16472.0,462.62,2772.99,-10938.5,13699,2760.54,164.749,91.0333,51.5021,28.0071,1080.32,1127.19,217.739
462.1,16602.0,462.519,2923.33,-10718.7,13678.7,2960.01,169.019,93.6441,53.2979,29.3523,1199.55,1264.91,150.237
462.0,16795.0,462.4195,3137.97,-10452.2,13657,3204.81,173.455,96.3685,55.1888,30.7959,1336.55,1415.97,96.4793
461.9,16811.0,462.32,3176.52,-10140.3,13634.5,3494.18,178.069,99.2132,57.1817,32.3476,1493.89,1575.84,57.6373
461.8,17016.0,462.2195,3405.03,-9790.93,13611,3820.04,182.868,102.185,59.284,34.0183,1673.99,1735.66,32.0413
461.7,17059.0,462.12,3472.58,-9419.53,13586.4,4166.89,187.864,105.293,61.5039,35.8205,1878.65,1881.16,16.589
461.6,17394.0,462.019,3833.68,-9048.14,13560.3,4512.19,193.067,108.544,63.8501,37.7679,2108.19,1992.76,8.00848
461.5,17401.0,461.9195,3868.18,-8704.83,13532.8,4827.99,198.488,111.947,66.3325,39.8766,2359.95,2047.79,3.6097
461.4,17433.0,461.82,3928.02,-8420.88,13505,5084.1,204.141,115.512,68.9617,42.1645,2626.4,2025.4,1.52103
461.3,17469.0,461.7195,3992.3,-8224.23,13476.7,5252.47,210.037,119.25,71.7495,44.6521,2892.76,1913.42,0.599836
461.2,17647.0,461.62,4199.55,-8136.11,13447.4,5311.34,216.192,123.171,74.7087,47.3629,3135.27,1714.41,0.221583
461.1,17752.0,461.519,4335.03,-8169.53,13417,5247.44,222.621,127.288,77.8536,50.324,3321.27,1448,0.0767205
461.0,17795.0,461.4195,4409.26,-8329.9,13385.7,5055.84,229.34,131.615,81.2001,53.5665,3412.98,1147.12,0.0249065
460.9,17632.0,461.32,4277.27,-8615.44,13354.7,4739.29,236.367,136.165,84.7654,57.1262,3375.67,849.183,0.00758228
460.8,17698.0,461.2195,4374.17,-9014.59,13323.8,4309.24,243.721,140.954,88.5691,61.0448,3189.03,585.923,0.0021645
460.7,17491.0,461.12,4197.78,-9504.18,13293.2,3789.04,251.422,145.999,92.6327,65.3709,2857.35,376.269,0.000579316
460.6,17199.0,461.019,3934.82,-10048.1,13264.2,3216.07,259.493,151.318,96.98,70.161,2413.33,224.786,0.000145336
460.5,16844.0,460.9195,3606.75,-10598.4,13237.3,2638.83,267.957,156.932,101.638,75.4814,1911.86,124.961,3.41665e-05
460.4,16619.0,460.82,3406.79,-11104.5,13212.2,2107.75,276.841,162.863,106.637,81.41,1415.31,64.6972,7.52424e-06
460.3,16507.0,460.7195,3318.81,-11525.1,13188.2,1663.13,286.172,169.135,112.01,88.0388,976.538,31.2331,1.55174e-06
460.2,16149.0,460.62,2983.32,-11839.5,13165.7,1326.22,295.981,175.774,117.795,95.4762,627.116,14.0778,2.99591e-07
460.1,15775.0,460.519,2629.36,-12048.1,13145.6,1097.57,306.301,182.81,124.035,103.851,374.643,5.932,5.41328e-08
460.0,15426.0,460.4195,2297.95,-12165.9,13128,962.145,317.169,190.274,130.779,113.315,208.268,2.33936,9.15134e-09
459.9,15178.0,460.32,2065.54,-12214.8,13112.5,897.647,328.622,198.202,138.08,124.05,107.829,0.864173,1.44704e-09
459.8,14844.0,460.2195,1745.14,-12216.9,13098.9,881.962,340.704,206.633,146.003,136.268,52.0551,0.29921,2.13962e-10
459.7,14816.0,460.12,1729.55,-12189,13086.4,897.468,353.461,215.609,154.616,150.222,23.463,0.0971354,2.95768e-11
459.6,14778.0,460.019,1703.81,-12141.9,13074.2,932.246,366.945,225.179,164.003,166.202,9.88667,0.0295709,3.82046e-12
459.5,14727.0,459.9195,1664.84,-12082.8,13062.2,979.317,381.211,235.396,174.257,184.546,3.89893,0.00844153,4.61992e-13
459.4,14746.0,459.82,1695.84,-12015,13050.2,1035.19,396.321,246.318,185.484,205.624,1.44029,0.00225933,5.18226e-14
459.3,14641.0,459.7195,1602.62,-11939.9,13038.4,1098.49,412.342,258.012,197.81,229.829,0.498683,0.000566809,5.72356e-15
459.2,14608.0,459.62,1580.99,-11858,13027,1168.98,429.349,270.551,211.379,257.537,0.161892,0.000133249,0.0
459.1,14494.0,459.519,1477.91,-11769.2,13016.1,1246.87,447.423,284.018,226.359,289.024,0.0492848,2.93445e-05,0.0
459.0,14570.0,459.4195,1564.78,-11672.8,13005.2,1332.46,466.655,298.506,242.946,324.336,0.0140692,6.05178e-06,0.0
458.9,14611.0,459.32,1617.14,-11568.2,12993.9,1425.71,487.145,314.119,261.369,363.069,0.00376556,1.16841e-06,0.0
458.8,14673.0,459.2195,1690.95,-11456.1,12982,1525.94,509.005,330.976,281.898,404.061,0.000944682,2.11118e-07,0.0
458.7,14833.0,459.12,1863.65,-11337.9,12969.4,1631.46,532.358,349.21,304.851,445.041,0.000222082,3.56902e-08,0.0
458.6,14876.0,459.019,1920.16,-11216.6,12955.8,1739.27,557.342,368.972,330.605,482.35,4.89075e-05,5.64346e-09,0.0
458.5,14839.0,458.9195,1896.79,-11097.1,12942.2,1845.12,584.111,390.437,359.604,510.965,1.00863e-05,8.34451e-10,0.0
458.4,14924.0,458.82,1995.69,-10984.2,12928.3,1944.09,612.839,413.802,392.376,525.073,1.94734e-06,1.15349e-10,0.0
458.3,15077.0,458.7195,2163.54,-10881.6,12913.5,2031.89,643.717,439.293,429.546,519.334,3.51863e-07,1.48998e-11,0.0
458.2,14878.0,458.62,1979.33,-10792.1,12898.7,2106.61,676.965,467.172,471.855,490.62,5.94837e-08,1.80177e-12,0.0
458.1,14874.0,458.519,1989.51,-10714.2,12884.5,2170.33,712.827,497.738,520.171,439.592,9.40577e-09,2.02108e-13,0.0
458.0,14963.0,458.4195,2093.08,-10640.2,12869.9,2229.71,751.582,531.34,575.508,371.282,1.39075e-09,2.23219e-14,0.0
457.9,15183.0,458.32,2328.88,-10559,12854.1,2295.08,793.545,568.382,639.025,294.133,1.92249e-10,0.0,0.0
457.8,15255.0,458.2195,2417.83,-10459,12837.2,2378.16,839.073,609.336,712.012,217.739,2.4833e-11,0.0,0.0
457.7,15450.0,458.12,2630.85,-10329.8,12819.1,2489.39,888.576,654.753,795.828,150.237,3.00295e-12,0.0,0.0
457.6,15516.0,458.019,2715.95,-10164,12800.1,2636.05,942.522,705.278,891.77,96.4793,3.36847e-13,0.0,0.0
457.5,15752.0,457.9195,2972.26,-9958.18,12779.7,2821.56,1001.45,761.675,1000.8,57.6373,3.72031e-14,0.0,0.0
457.4,15809.0,457.82,3050.77,-9712.3,12758.2,3045.93,1065.97,824.84,1123.08,32.0413,0.0,0.0,0.0
457.3,16112.0,457.7195,3376.72,-9428.85,12735.3,3306.43,1136.81,895.838,1257.2,16.589,0.0,0.0,0.0
457.2,16236.0,457.62,3525.37,-9112.77,12710.6,3597.87,1214.79,975.927,1399.14,8.00848,0.0,0.0,0.0
457.1,16689.0,457.519,4005.26,-8771.61,12683.7,3912.13,1300.88,1066.6,1541.04,3.6097,0.0,0.0,0.0
457.0,16901.0,457.4195,4246.73,-8416.69,12654.3,4237.58,1396.2,1169.63,1670.23,1.52103,0.0,0.0,0.0
456.9,17069.0,457.32,4445.77,-8064.14,12623.2,4559.09,1502.08,1287.1,1769.31,0.599836,0.0,0.0,0.0
456.8,17319.0,457.2195,4728.53,-7730.58,12590.5,4859.9,1620.06,1421.45,1818.17,0.221583,0.0,0.0,0.0
456.7,17425.0,457.12,4868.8,-7430.35,12556.2,5125.85,1751.97,1575.51,1798.29,0.0767205,0.0,0.0,0.0
456.6,17963.0,457.019,5443.62,-7168.04,12519.4,5351.33,1899.98,1752.47,1698.86,0.0249065,0.0,0.0,0.0
456.5,18142.0,456.9195,5662.28,-6935.11,12479.7,5544.61,2066.63,1955.8,1522.17,0.00758228,0.0,0.0,0.0
456.4,18670.0,456.82,6232.76,-6707.61,12437.2,5729.63,2254.97,2189.02,1285.63,0.0021645,0.0,0.0,0.0
456.3,19197.0,456.7195,6806.32,-6448.42,12390.7,5942.26,2468.59,2455.18,1018.49,0.000579316,0.0,0.0,0.0
456.2,19230.0,456.62,6888.22,-6120.16,12341.8,6221.62,2711.74,2755.92,753.964,0.000145336,0.0,0.0,0.0
456.1,19488.0,456.519,7196.52,-5691.92,12291.5,6599.57,2989.41,3089.93,520.223,3.41665e-05,0.0,0.0,0.0
456.0,19950.0,456.4195,7711.75,-5146.19,12238.2,7092.06,3307.43,3450.55,334.078,7.52424e-06,0.0,0.0,0.0
455.9,20272.0,456.32,8090.18,-4487.06,12181.8,7694.76,3672.46,3822.72,199.58,1.55174e-06,0.0,0.0,0.0
455.8,20408.0,456.2195,8284.66,-3740.53,12123.3,8382.82,4091.91,4179.95,110.949,2.99591e-07,0.0,0.0,0.0
455.7,20702.0,456.12,8639.09,-2948.96,12062.9,9113.95,4573.6,4482.91,57.4427,5.41328e-08,0.0,0.0,0.0
455.6,21115.0,456.019,9115.49,-2165.03,11999.5,9834.48,5124.98,4681.77,27.7309,9.15134e-09,0.0,0.0,0.0
455.5,21489.0,455.9195,9556.17,-1444.18,11932.8,10488.7,5751.57,4724.58,12.4993,1.44704e-09,0.0,0.0,0.0
455.4,21564.0,455.82,9699.93,-833.324,11864.1,11030.7,6454.29,4571.19,5.26685,2.13962e-10,0.0,0.0,0.0
455.3,21873.0,455.7195,10079.6,-357.168,11793.4,11436.3,7225.08,4209.12,2.07705,2.95768e-11,0.0,0.0,0.0
455.2,22120.0,455.62,10399.7,-14.5791,11720.3,11705.7,8040.82,3664.15,0.767273,3.82046e-12,0.0,0.0,0.0
455.1,22159.0,455.519,10513.4,209.808,11645.6,11855.4,8856.31,2998.87,0.265659,4.61992e-13,0.0,0.0,0.0
455.0,21996.0,455.4195,10425.1,325.428,11570.9,11896.3,9598.76,2297.44,0.0862436,5.18226e-14,0.0,0.0,0.0
454.9,21779.0,455.32,10282.1,313.676,11496.9,11810.6,10168.2,1642.36,0.0262551,5.72356e-15,0.0,0.0,0.0
454.8,21541.0,455.2195,10116.9,118.265,11424.1,11542.3,10449,1093.37,0.00749498,0.0,0.0,0.0,0.0
454.7,21680.0,455.12,10328.9,-339.084,11351.1,11012,10334.7,677.227,0.00200599,0.0,0.0,0.0,0.0
454.6,21287.0,455.019,10008.6,-1124.86,11278.4,10153.6,9763.33,390.246,0.000503253,0.0,0.0,0.0,0.0
454.5,20832.0,454.9195,9623.67,-2251.12,11208.3,8957.21,8747.88,209.334,0.000118308,0.0,0.0,0.0,0.0
454.4,19868.0,454.82,8725.19,-3649.67,11142.8,7493.14,7388.51,104.638,2.60541e-05,0.0,0.0,0.0,0.0
454.3,18245.0,454.7195,7158.91,-5184.05,11086.1,5902.04,5853.24,48.8026,5.37319e-06,0.0,0.0,0.0,0.0
454.2,16150.0,454.62,5107.72,-6688.01,11042.3,4354.28,4333.01,21.2653,1.03739e-06,0.0,0.0,0.0,0.0
454.1,14305.0,454.519,3292.71,-8013.91,11012.3,2998.38,2989.71,8.66756,1.87445e-07,0.0,0.0,0.0,0.0
454.0,13159.0,454.4195,2166.21,-9069.55,10992.8,1923.25,1919.94,3.30793,3.16883e-08,0.0,0.0,0.0,0.0
453.9,12387.0,454.32,1406.97,-9831.87,10980,1148.17,1146.98,1.18296,5.01066e-09,0.0,0.0,0.0,0.0
453.8,11879.0,454.2195,907.23,-10333.8,10971.8,638.018,637.622,0.396594,7.40884e-10,0.0,0.0,0.0,0.0
453.7,11715.0,454.12,749.144,-10635.6,10965.9,330.246,330.122,0.124677,1.02415e-10,0.0,0.0,0.0,0.0
453.6,11522.0,454.019,560.822,-10801.8,10961.2,159.406,159.369,0.0367549,1.32291e-11,0.0,0.0,0.0,0.0
453.5,11625.0,453.9195,668.211,-10884.9,10956.8,71.8431,71.8329,0.0101598,1.59974e-12,0.0,0.0,0.0,0.0
453.4,11510.0,453.82,557.588,-10922.1,10952.4,30.2711,30.2684,0.00263273,1.79446e-13,0.0,0.0,0.0,0.0
453.3,11426.0,453.7195,477.284,-10936.8,10948.7,11.9374,11.9367,0.00063939,1.98189e-14,0.0,0.0,0.0,0.0
453.2,11364.0,453.62,418.482,-10941.1,10945.5,4.40964,4.4095,0.000145488,0.0,0.0,0.0,0.0,0.0
453.1,11337.0,453.519,394.385,-10941.1,10942.6,1.52677,1.52674,3.10067e-05,0.0,0.0,0.0,0.0,0.0
453.0,11325.0,453.4195,385.169,-10939.3,10939.8,0.495646,0.49564,6.18736e-06,0.0,0.0,0.0,0.0,0.0
452.9,11296.0,453.32,358.826,-10937,10937.2,0.150888,0.150887,1.15569e-06,0.0,0.0,0.0,0.0,0.0
452.8,11248.0,453.2195,313.225,-10934.7,10934.8,0.0430737,0.0430735,2.01993e-07,0.0,0.0,0.0,0.0,0.0
452.7,11206.0,453.12,273.32,-10932.7,10932.7,0.0115284,0.0115284,3.30264e-08,0.0,0.0,0.0,0.0,0.0
452.6,11113.0,453.019,181.946,-10931.1,10931.1,0.00289219,0.00289218,5.0501e-09,0.0,0.0,0.0,0.0,0.0
452.5,11035.0,452.9195,104.97,-10930,10930,0.000679914,0.000679913,7.22003e-10,0.0,0.0,0.0,0.0,0.0
452.4,11128.0,452.82,199.056,-10928.9,10928.9,0.000149732,0.000149732,9.64869e-11,0.0,0.0,0.0,0.0,0.0
452.3,11051.0,452.7195,123.207,-10927.8,10927.8,3.08796e-05,3.08796e-05,1.20487e-11,0.0,0.0,0.0,0.0,0.0
452.2,11078.0,452.62,151.187,-10926.8,10926.8,5.96187e-06,5.96187e-06,1.41681e-12,0.0,0.0,0.0,0.0,0.0
452.1,11067.0,452.519,141.231,-10925.8,10925.8,1.07724e-06,1.07724e-06,1.59457e-13,0.0,0.0,0.0,0.0,0.0
452.0,11063.0,452.4195,138.229,-10924.8,10924.8,1.82112e-07,1.82112e-07,2.49726e-14,0.0,0.0,0.0,0.0,0.0
451.9,11147.0,452.32,223.52,-10923.5,10923.5,2.87961e-08,2.87961e-08,0.0,0.0,0.0,0.0,0.0,0.0
451.8,11122.0,452.2195,200.033,-10922,10922,4.25784e-09,4.25784e-09,0.0,0.0,0.0,0.0,0.0,0.0
451.7,10977.0,452.12,55.9471,-10921.1,10921.1,5.88578e-10,5.88578e-10,0.0,0.0,0.0,0.0,0.0,0.0
451.6,11161.0,452.019,241.007,-10920,10920,7.60272e-11,7.60272e-11,0.0,0.0,0.0,0.0,0.0,0.0
451.5,11178.0,451.9195,259.796,-10918.2,10918.2,9.19365e-12,9.19365e-12,0.0,0.0,0.0,0.0,0.0,0.0
451.4,10929.0,451.82,11.7655,-10917.2,10917.2,1.03127e-12,1.03127e-12,0.0,0.0,0.0,0.0,0.0,0.0
451.3,11108.0,451.7195,191.491,-10916.5,10916.5,1.13899e-13,1.13899e-13,0.0,0.0,0.0,0.0,0.0,0.0
451.2,11149.0,451.62,234.011,-10915,10915,0.0,0.0,0.0,0.0,0.0,0.0,0.0,0.0
451.1,10957.0,451.519,43.0,-10914.0,10914.0,0.0,0.0,0.0,0.0,0.0,0.0,0.0,0.0
451.0,10914.0,451.4195,0.0,-10914.0,10914.0,0.0,0.0,0.0,0.0,0.0,0.0,0.0,0.0
450.9,10987.0,451.32,73.0,-10914.0,10914.0,0.0,0.0,0.0,0.0,0.0,0.0,0.0,0.0
450.8,11033.0,451.2195,119.0,-10914.0,10914.0,0.0,0.0,0.0,0.0,0.0,0.0,0.0,0.0
450.7,11007.0,451.12,93.0,-10914.0,10914.0,0.0,0.0,0.0,0.0,0.0,0.0,0.0,0.0
450.6,11100.0,451.019,186.0,-10914.0,10914.0,0.0,0.0,0.0,0.0,0.0,0.0,0.0,0.0
450.5,11078.0,450.9195,164.0,-10914.0,10914.0,0.0,0.0,0.0,0.0,0.0,0.0,0.0,0.0
450.4,11067.0,450.82,153.0,-10914.0,10914.0,0.0,0.0,0.0,0.0,0.0,0.0,0.0,0.0
450.3,11176.0,450.7195,262.0,-10914.0,10914.0,0.0,0.0,0.0,0.0,0.0,0.0,0.0,0.0