File: XPS/LG4X-result/MX-UT-0.5-1-O1s.csv
#No of rows lightened (2D detector)1(if not using 2D detector, value is 1 and can be ignored!)
raw_x,raw_y,corrected x,data-bg,sum_components,bg,sum_fit,bg_shirley_,C-O,TiO2,C-Ti-(OH)x
537.5,260.943,537.9255,260.942,68.9159,0.000542006,68.9164,0.000542006,0.002148,9.9809,58.9328
537.4,157.277,537.8255,157.277,71.0291,0.000541472,71.0296,0.000541472,0.00358533,10.226,60.7995
537.3,218.578,537.7255,218.577,73.2412,0.000541151,73.2418,0.000541151,0.00592457,10.4802,62.7551
537.2,205.917,537.626,205.917,75.559,0.000540704,75.5595,0.000540704,0.00969211,10.744,64.8053
537.1,108.169,537.526,108.168,77.9897,0.000540283,77.9903,0.000540283,0.0156969,11.0179,66.9562
537.0,36.2841,537.4255,36.2835,80.5419,0.000540062,80.5424,0.000540062,0.0251676,11.3023,69.2144
536.9,29.3366,537.3255,29.336,83.2249,0.000539988,83.2254,0.000539988,0.0399489,11.5979,71.587
536.8,105.444,537.2255,105.444,86.0499,0.000539928,86.0504,0.000539928,0.0627769,11.9053,74.0818
536.7,186.678,537.126,186.678,89.0299,0.000539713,89.0304,0.000539713,0.0976628,12.2251,76.7072
536.6,282.053,537.026,282.052,92.1805,0.000539331,92.181,0.000539331,0.150415,12.5578,79.4722
536.5,108.365,536.9255,108.365,95.5206,0.000538755,95.5211,0.000538755,0.229344,12.9044,82.3868
536.4,49.4916,536.8255,49.491,99.0735,0.000538533,99.074,0.000538533,0.346192,13.2655,85.4618
536.3,29.5548,536.7255,29.5543,102.868,0.000538432,102.869,0.000538432,0.517346,13.6419,88.7089
536.2,64.6302,536.626,64.6296,106.941,0.000538372,106.941,0.000538372,0.765381,14.0345,92.1409
536.1,134.79,536.526,134.789,111.337,0.00053824,111.338,0.00053824,1.12101,14.4444,95.7718
536.0,295.134,536.4255,295.133,116.115,0.000537964,116.115,0.000537964,1.62544,14.8724,99.6169
535.9,205.534,536.3255,205.534,121.346,0.000537361,121.347,0.000537361,2.33329,15.3198,103.693
535.8,131.804,536.2255,131.803,127.122,0.000536941,127.123,0.000536941,3.31588,15.7876,108.019
535.7,251.11,536.126,251.11,133.556,0.000536672,133.557,0.000536672,4.66513,16.2771,112.614
535.6,215.483,536.026,215.483,140.788,0.000536159,140.789,0.000536159,6.49773,16.7897,117.501
535.5,170.792,535.9255,170.792,148.991,0.000535718,148.992,0.000535718,8.95968,17.327,122.705
535.4,119.024,535.8255,119.024,158.373,0.000535369,158.374,0.000535369,12.2309,17.8903,128.252
535.3,182.265,535.7255,182.265,169.183,0.000535126,169.184,0.000535126,16.5293,18.4816,134.172
535.2,379.715,535.626,379.714,181.717,0.000534754,181.718,0.000534754,22.115,19.1026,140.5
535.1,230.203,535.526,230.202,196.318,0.000533978,196.318,0.000533978,29.2923,19.7554,147.27
535.0,390.699,535.4255,390.699,213.378,0.000533507,213.378,0.000533507,38.4106,20.4423,154.525
534.9,229.195,535.3255,229.195,233.338,0.000532709,233.339,0.000532709,49.8636,21.1655,162.309
534.8,169.514,535.2255,169.514,256.685,0.000532241,256.686,0.000532241,64.084,21.9277,170.674
534.7,136.759,535.126,136.759,283.942,0.000531894,283.943,0.000531894,81.5359,22.7317,179.675
534.6,244.064,535.026,244.063,315.659,0.000531615,315.659,0.000531615,102.703,23.5808,189.375
534.5,306.504,534.9255,306.504,352.394,0.000531116,352.395,0.000531116,128.07,24.4782,199.846
534.4,222.928,534.8255,222.927,394.7,0.00053049,394.7,0.00053049,158.106,25.4277,211.166
534.3,385.414,534.7255,385.414,443.091,0.000530034,443.092,0.000530034,193.233,26.4335,223.425
534.2,450.083,534.626,450.082,498.023,0.000529247,498.024,0.000529247,233.802,27.5,236.721
534.1,471.82,534.526,471.82,559.858,0.000528327,559.859,0.000528327,280.058,28.6323,251.168
534.0,634.705,534.4255,634.705,628.837,0.000527363,628.837,0.000527363,332.11,29.8358,266.891
533.9,740.806,534.3255,740.805,705.046,0.000526066,705.046,0.000526066,389.897,31.1166,284.032
533.8,745.995,534.2255,745.994,788.393,0.000524552,788.394,0.000524552,453.159,32.4815,302.753
533.7,900.312,534.126,900.311,878.588,0.000523027,878.588,0.000523027,521.417,33.938,323.233
533.6,902.754,534.026,902.754,975.124,0.000521187,975.124,0.000521187,593.954,35.4944,345.675
533.5,945.232,533.9255,945.232,1077.28,0.000519343,1077.28,0.000519343,669.814,37.1601,370.307
533.4,1161.92,533.8255,1161.92,1184.14,0.000517411,1184.14,0.000517411,747.807,38.9455,397.385
533.3,1215.82,533.7255,1215.82,1294.58,0.000515037,1294.58,0.000515037,826.528,40.8624,427.192
533.2,1519.01,533.626,1519.01,1407.36,0.000512552,1407.37,0.000512552,904.398,42.9238,460.043
533.1,1714.59,533.526,1714.59,1521.13,0.000509448,1521.13,0.000509448,979.705,45.1447,496.284
533.0,1578.23,533.4255,1578.23,1634.5,0.000505944,1634.5,0.000505944,1050.66,47.542,536.29
532.9,1743.89,533.3255,1743.88,1746.08,0.000502719,1746.09,0.000502719,1115.49,50.1346,580.458
532.8,2012.89,533.2255,2012.89,1854.62,0.000499155,1854.62,0.000499155,1172.47,52.9444,629.202
532.7,1923.04,533.126,1923.04,1958.96,0.000495042,1958.96,0.000495042,1220.03,55.9962,682.931
532.6,2211.35,533.026,2211.35,2058.17,0.000491112,2058.17,0.000491112,1256.83,59.3184,742.026
532.5,2311.96,532.9255,2311.96,2151.51,0.000486593,2151.51,0.000486593,1281.77,62.9439,806.795
532.4,2181.56,532.8255,2181.56,2238.47,0.000481869,2238.47,0.000481869,1294.14,66.9104,877.419
532.3,2320.16,532.7255,2320.16,2318.68,0.000477411,2318.68,0.000477411,1293.56,71.2619,953.867
532.2,2452.98,532.626,2452.98,2391.88,0.000472669,2391.88,0.000472669,1280.04,76.0497,1035.79
532.1,2419.88,532.526,2419.88,2457.71,0.000467657,2457.71,0.000467657,1253.99,81.3335,1122.4
532.0,2228.59,532.4255,2228.59,2515.66,0.000462712,2515.66,0.000462712,1216.18,87.184,1212.3
531.9,2517.39,532.3255,2517.39,2564.77,0.000458158,2564.77,0.000458158,1167.71,93.6846,1303.38
531.8,2664.54,532.2255,2664.54,2603.62,0.000453013,2603.62,0.000453013,1109.95,100.934,1392.73
531.7,2470.64,532.126,2470.64,2630.19,0.000447568,2630.19,0.000447568,1044.5,109.052,1476.63
531.6,2676.76,532.026,2676.76,2642.03,0.000442519,2642.03,0.000442519,973.078,118.181,1550.77
531.5,2617,531.9255,2617,2636.55,0.000437049,2636.55,0.000437049,897.469,128.494,1610.58
531.4,2496.09,531.8255,2496.09,2611.55,0.000431701,2611.55,0.000431701,819.454,140.202,1651.89
531.3,2631.19,531.7255,2631.19,2565.8,0.000426601,2565.8,0.000426601,740.735,153.568,1671.5
531.2,2602.37,531.626,2602.37,2499.6,0.000421224,2499.6,0.000421224,662.88,168.912,1667.81
531.1,2435.4,531.526,2435.4,2415.05,0.000415906,2415.05,0.000415906,587.274,186.642,1641.13
531.0,2189.1,531.4255,2189.1,2315.97,0.000410929,2315.97,0.000410929,515.086,207.269,1593.61
530.9,2287.68,531.3255,2287.68,2207.52,0.000406456,2207.52,0.000406456,447.252,231.446,1528.82
530.8,2032.14,531.2255,2032.14,2095.62,0.000401781,2095.62,0.000401781,384.467,260.021,1451.13
530.7,1881.27,531.126,1881.27,1986.36,0.000397628,1986.36,0.000397628,327.189,294.1,1365.07
530.6,1863.26,531.026,1863.26,1885.62,0.000393783,1885.62,0.000393783,275.658,335.147,1274.81
530.5,1860.24,530.9255,1860.24,1798.88,0.000389976,1798.88,0.000389976,229.921,385.132,1183.82
530.4,1819.19,530.8255,1819.19,1731.36,0.000386174,1731.36,0.000386174,189.853,446.739,1094.77
530.3,1721.02,530.7255,1721.02,1688.4,0.000382457,1688.4,0.000382457,155.2,523.68,1009.52
530.2,1722.77,530.626,1722.77,1676.02,0.00037894,1676.02,0.00037894,125.603,621.169,929.249
530.1,1885.66,530.526,1885.66,1701.87,0.000375419,1701.87,0.000375419,100.633,746.625,854.609
530.0,2113.86,530.4255,2113.86,1776.36,0.000371566,1776.36,0.000371566,79.8204,910.712,785.832
529.9,2177.29,530.3255,2177.29,1914.33,0.000367246,1914.33,0.000367246,62.6789,1128.78,722.871
529.8,2364.92,530.2255,2364.92,2136.77,0.000362797,2136.77,0.000362797,48.7262,1422.55,665.499
529.7,2666.95,530.126,2666.95,2471.69,0.000357964,2471.69,0.000357964,37.5005,1820.81,613.378
529.6,3129.59,530.026,3129.59,2949.65,0.000352514,2949.65,0.000352514,28.5723,2354.96,566.116
529.5,3478.87,529.9255,3478.87,3582.04,0.000346119,3582.04,0.000346119,21.552,3037.19,523.299
529.4,4117.95,529.8255,4117.95,4302.09,0.00033901,4302.09,0.00033901,16.0939,3801.48,484.517
529.3,4758.05,529.7255,4758.05,4885.15,0.000330595,4885.15,0.000330595,11.8979,4423.88,449.38
529.2,4830.72,529.626,4830.72,5008.68,0.000320872,5008.68,0.000320872,8.7079,4582.45,417.52
529.1,4649.3,529.526,4649.3,4568.73,0.000311,4568.73,0.000311,6.30942,4173.81,388.603
529.0,4273.44,529.4255,4273.44,3813.45,0.000301499,3813.45,0.000301499,4.52583,3446.6,362.322
528.9,3192.41,529.3255,3192.41,3045.19,0.000292766,3045.19,0.000292766,3.21397,2703.58,338.404
528.8,2508.97,529.2255,2508.97,2407.38,0.000286242,2407.39,0.000286242,2.25953,2088.52,316.601
528.7,1846.46,529.126,1846.46,1919.22,0.000281115,1919.22,0.000281115,1.57263,1620.95,296.694
528.6,1458.1,529.026,1458.1,1554.72,0.000277342,1554.72,0.000277342,1.0836,1275.15,278.488
528.5,1046.1,528.9255,1046.1,1282.22,0.000274362,1282.22,0.000274362,0.739176,1019.67,261.808
528.4,647.458,528.8255,647.458,1075.92,0.000272225,1075.92,0.000272225,0.499181,828.923,246.5
528.3,579.44,528.7255,579.439,917.109,0.000270901,917.109,0.000270901,0.333735,684.347,232.428
528.2,479.287,528.626,479.286,792.658,0.000269717,792.659,0.000269717,0.220892,572.969,219.469
528.1,197.828,528.526,197.828,693.443,0.000268738,693.443,0.000268738,0.14474,485.783,207.515
528.0,245.183,528.4255,245.182,613.065,0.000268334,613.065,0.000268334,0.0938932,416.501,196.471
527.9,256.584,528.3255,256.584,546.987,0.000267833,546.987,0.000267833,0.0602993,360.677,186.25
527.8,293.024,528.2255,293.023,491.937,0.000267308,491.937,0.000267308,0.0383375,315.123,176.776
527.7,220.434,528.126,220.434,445.525,0.00026671,445.525,0.00026671,0.0241306,277.519,167.981
527.6,171.748,528.026,171.748,405.972,0.000266259,405.973,0.000266259,0.0150365,246.152,159.805
527.5,206.05,527.9255,206.05,371.939,0.000265908,371.939,0.000265908,0.00927596,219.738,152.192
527.4,258.422,527.8255,258.422,342.399,0.000265487,342.4,0.000265487,0.00566505,197.3,145.094
527.3,370.925,527.7255,370.925,316.56,0.000264959,316.56,0.000264959,0.00342518,178.089,138.467
527.2,204.385,527.626,204.385,293.796,0.000264201,293.796,0.000264201,0.0020502,161.523,132.271
527.1,79.6127,527.526,79.6124,273.614,0.000263783,273.614,0.000263783,0.0012149,147.141,126.471
527.0,161.806,527.4255,161.806,255.616,0.000263621,255.617,0.000263621,0.000712723,134.581,121.035
526.9,81.0,527.3255,80.9997,239.483,0.00026329,239.483,0.00026329,0.000413936,123.549,115.934
526.8,0.0,527.2255,-0.000263124,224.95,0.000263124,224.95,0.000263124,0.000238002,113.809,111.141
526.7,64.0,527.126,63.9997,211.802,0.000263124,211.802,0.000263124,0.000135475,105.169,106.632
526.6,190.0,527.026,190,199.858,0.000262994,199.858,0.000262994,7.63438e-05,97.4703,102.387
526.5,268.0,526.9255,268,188.967,0.000262605,188.967,0.000262605,4.25913e-05,90.5816,98.3855
526.4,205.0,526.8255,205,179.003,0.000262058,179.004,0.000262058,2.35234e-05,84.394,94.6094
526.3,172.0,526.7255,172,169.858,0.000261639,169.859,0.000261639,1.28622e-05,78.8159,91.0425
526.2,29.0,526.626,28.9997,161.44,0.000261287,161.441,0.000261287,6.96246e-06,73.7703,87.67
526.1,238.0,526.526,238,153.67,0.000261228,153.67,0.000261228,3.73116e-06,69.1919,84.4783
526.0,98.0,526.4255,97.9997,146.48,0.000260742,146.48,0.000260742,1.97951e-06,65.0249,81.4549
525.9,148.0,526.3255,148,139.81,0.000260541,139.81,0.000260541,1.0397e-06,61.2217,78.5884
525.8,181.0,526.2255,181,133.61,0.000260239,133.61,0.000260239,5.40614e-07,57.7413,75.8682
525.7,20.0,526.126,19.9997,127.833,0.000259869,127.833,0.000259869,2.78293e-07,54.5484,73.2848
525.6,169.0,526.026,169,122.441,0.000259828,122.442,0.000259828,1.41824e-07,51.6122,70.8292
525.5,251.0,525.9255,251,117.399,0.000259483,117.4,0.000259483,7.15539e-08,48.906,68.4933
525.4,336.0,525.8255,336,112.676,0.00025897,112.676,0.00025897,3.57395e-08,46.4066,66.2696
525.3,355.0,525.7255,355,108.244,0.000258283,108.245,0.000258283,1.76725e-08,44.0934,64.151
525.2,319.0,525.626,319,104.08,0.000257558,104.08,0.000257558,8.65128e-09,41.9484,62.1311
525.1,129.0,525.526,129,100.16,0.000256906,100.16,0.000256906,4.19273e-09,39.9558,60.204
525.0,193.0,525.4255,193,96.4657,0.000256642,96.4659,0.000256642,2.01162e-09,38.1015,58.3642