File: XPS/LG4X-result/MX-UT-0.1-2-C1s.csv
#No of rows lightened (2D detector)1(if not using 2D detector, value is 1 and can be ignored!)
raw_x,raw_y,corrected x,data-bg,sum_components,bg,sum_fit,C=C,pi-pi*,pi-pi*2,C-C,C-O,C_6,TiC
295.0,777.0,295.4017,46.0,-695.482,731.0,35.5178,11.2184,13.0095,0.0,3.63234,7.57824,0.0,0.0793732
294.9,766.0,295.302,35.0,-694.293,731.0,36.7075,11.4272,13.7473,0.0,3.70375,7.74869,0.0,0.0805724
294.8,732.0,295.202,1.0,-693.019,731.0,37.9808,11.6418,14.555,0.0,3.77729,7.92493,0.0,0.081799
294.7,739.0,295.102,8.0,-691.652,731.0,39.3478,11.8626,15.4419,0.0,3.85303,8.10723,0.0,0.0830538
294.6,810.0,295.002,79.0,-690.18,731.0,40.8197,12.0897,16.4187,0.0,3.93108,8.29587,0.0,0.0843377
294.5,765.0,294.9017,34.0,-688.59,731.0,42.4099,12.3234,17.4981,0.0,4.01152,8.49113,0.0,0.0856516
294.4,731.0,294.802,0.0,-686.867,731.0,44.1333,12.564,18.6945,0.0,4.09446,8.69334,0.0,0.0869965
294.3,818.0,294.702,87.1381,-684.855,730.862,46.0073,12.8117,20.0244,0.0,4.17999,8.90281,0.0,0.0883733
294.2,826.0,294.602,95.4273,-682.521,730.573,48.0517,13.0667,21.507,0.0,4.26822,9.11992,0.0,0.089783
294.1,781.0,294.502,50.6587,-680.052,730.341,50.289,13.3295,23.164,0.0,4.35928,9.34502,0.0,0.0912268
294.0,771.0,294.4017,40.8036,-677.452,730.196,52.7447,13.6002,25.02,0.0,4.45328,9.57851,0.0,0.0927056
293.9,760.0,294.302,29.9157,-674.637,730.084,55.4475,13.8793,27.1028,0.0,4.55035,9.82081,0.0,0.0942208
293.8,748.0,294.202,17.9916,-671.579,730.008,58.4294,14.1671,29.4435,0.0,4.65063,10.0724,0.0,0.0957734
293.7,774.0,294.102,44.0899,-668.184,729.91,61.7258,14.464,32.0765,0.0,4.75426,10.3337,0.0,0.0973646
293.6,747.0,294.002,17.187,-664.438,729.813,65.3751,14.7702,35.0393,0.0,4.86138,10.6052,0.0,0.0989959
293.5,776.0,293.9017,46.2876,-660.293,729.712,69.4193,15.0863,38.3726,0.0,4.97217,10.8875,0.0,0.100669
293.4,789.0,293.802,59.4551,-655.642,729.545,73.9026,15.4127,42.1195,0.0,5.08678,11.1812,0.0,0.102384
293.3,823.0,293.702,93.6978,-650.431,729.302,78.8715,15.7497,46.3254,0.0,5.20539,11.4868,0.0,0.104144
293.2,834.0,293.602,105.013,-644.614,728.987,84.3737,16.098,51.0364,0.0,5.3282,11.8051,0.0,0.105949
293.1,804.0,293.502,75.2982,-638.245,728.702,90.4568,16.4579,56.2989,0.0,5.45541,12.1367,0.0,0.107802
293.0,809.0,293.4017,80.5451,-631.288,728.455,97.1669,16.8301,62.1576,0.0,5.58722,12.4823,0.0,0.109704
292.9,840.0,293.302,111.85,-623.603,728.15,104.547,17.215,68.6539,0.0,5.72385,12.8429,0.0,0.111656
292.8,782.0,293.202,54.1129,-615.252,727.887,112.635,17.6132,75.8238,0.0,5.86556,13.2191,0.0,0.113661
292.7,826.0,293.102,98.3544,-606.184,727.646,121.462,18.0255,83.6958,0.0,6.01259,13.612,0.0,0.115721
292.6,867.0,293.002,139.732,-596.222,727.268,131.046,18.4524,92.2882,0.0,6.16521,14.0225,0.0,0.117837
292.5,888.0,292.9017,161.208,-585.395,726.792,141.397,18.8947,101.607,0.0,6.32371,14.4518,0.0,0.120012
292.4,898.0,292.802,171.736,-573.758,726.264,152.506,19.353,111.641,0.0,6.4884,14.9009,0.0,0.122248
292.3,867.0,292.702,141.232,-561.42,725.768,164.349,19.8282,122.365,0.0,6.65959,15.371,0.0,0.124546
292.2,884.0,292.602,158.707,-548.413,725.293,176.88,20.3212,133.73,0.0,6.83764,15.8636,0.0,0.126911
292.1,922.0,292.502,197.271,-534.696,724.729,190.034,20.8328,145.668,0.0,7.02292,16.38,0.0,0.129343
292.0,919.0,292.4017,194.892,-520.387,724.108,203.721,21.364,158.088,0.0,7.21582,16.9218,0.0,0.131845
291.9,963.0,292.302,239.581,-505.589,723.419,217.83,21.9157,170.873,0.0,7.41677,17.4907,0.0,0.134421
291.8,991.0,292.202,268.385,-490.387,722.615,232.228,22.4891,183.887,0.0,7.62622,18.0884,0.0,0.137074
291.7,966.0,292.102,244.197,-475.044,721.803,246.759,23.0854,196.972,0.0,7.84466,18.717,0.0,0.139806
291.6,1002.0,292.002,281.03,-459.72,720.97,261.25,23.7056,209.951,0.0,8.0726,19.3785,0.0,0.14262
291.5,1024.0,291.9017,303.956,-444.53,720.044,275.514,24.3512,222.631,0.0,8.31061,20.0753,0.0,0.14552
291.4,1010.0,291.802,290.899,-429.749,719.101,289.352,25.0236,234.811,0.0,8.55928,20.81,0.0,0.148509
291.3,1013.0,291.702,294.827,-415.61,718.173,302.563,25.7242,246.283,0.0,8.81927,21.5852,0.0,0.151592
291.2,1038.0,291.602,320.802,-402.254,717.198,314.944,26.4546,256.84,0.0,9.09126,22.404,0.0,0.154771
291.1,1059.0,291.502,342.853,-389.843,716.147,326.303,27.2166,266.283,0.0,9.37601,23.2696,0.0,0.158052
291.0,1073.0,291.4017,357.964,-378.576,715.036,336.46,28.0121,274.427,0.0,9.67432,24.1857,0.0,0.161438
290.9,1094.0,291.302,380.133,-368.61,713.867,345.257,28.8429,281.106,0.0,9.98708,25.1562,0.0,0.164934
290.8,1070.0,291.202,357.301,-360.136,712.699,352.563,29.7113,286.182,0.0,10.3152,26.1853,0.0,0.168545
290.7,1129.0,291.102,417.529,-353.194,711.471,358.277,30.6195,289.548,0.0,10.6598,27.278,0.0,0.172276
290.6,1078.0,291.002,367.773,-347.889,710.227,362.338,31.5701,291.13,0.0,11.0218,28.4393,0.0,0.176132
290.5,1054.0,290.9017,344.902,-344.379,709.098,364.719,32.5656,290.895,0.0,11.4026,29.675,0.0,0.18012
290.4,1051.0,290.802,342.992,-342.572,708.008,365.436,33.609,288.848,0.0,11.8034,30.9916,0.0,0.184244
290.3,1025.0,290.702,318.039,-342.414,706.961,364.546,34.7033,285.033,0.0,12.2257,32.3961,0.0,0.188511
290.2,1037.0,290.602,331.068,-343.789,705.932,362.144,35.8521,279.531,0.0,12.671,33.8963,0.0,0.192929
290.1,1065.0,290.502,360.163,-346.479,704.837,358.358,37.0588,272.459,0.0,13.1411,35.501,0.0,0.197504
290.0,1056.0,290.4017,352.292,-350.357,703.708,353.351,38.3276,263.964,0.0,13.6377,37.2199,0.0,0.202243
289.9,995.0,290.302,292.313,-355.376,702.687,347.311,39.6627,254.215,0.0,14.1629,39.0636,0.0,0.207156
289.8,1025.0,290.202,323.288,-361.265,701.712,340.447,41.0688,243.402,0.0,14.7189,41.0444,0.0,0.212249
289.7,1038.0,290.102,337.335,-367.684,700.665,332.981,42.5511,231.728,0.0,15.3083,43.1759,0.0,0.217533
289.6,1037.0,290.002,337.404,-374.452,699.596,325.144,44.1152,219.399,0.0,15.9337,45.473,0.0,0.223017
289.5,977.0,289.9017,278.379,-381.451,698.621,317.17,45.7671,206.623,0.0,16.5981,47.9531,0.0,0.22871
289.4,1001.0,289.802,303.301,-388.411,697.699,309.288,47.5137,193.599,0.0,17.3047,50.6354,0.0,0.234625
289.3,990.0,289.702,293.246,-395.036,696.754,301.718,49.3622,180.516,0.0,18.0574,53.5416,0.0,0.240773
289.2,972.0,289.602,276.148,-401.181,695.852,294.671,51.3208,167.546,0.0,18.86,56.6964,0.0,0.247165
289.1,1001.0,289.502,306.071,-406.589,694.929,288.341,53.3983,154.843,0.0,19.7171,60.1279,0.0,0.253815
289.0,992.0,289.4017,298.028,-411.067,693.972,282.905,55.6046,142.538,0.0,20.6339,63.8678,0.0,0.260738
288.9,985.0,289.302,291.962,-414.511,693.038,278.527,57.9505,130.74,0.0,21.6157,67.9526,0.0,0.267948
288.8,945.0,289.202,252.825,-416.824,692.175,275.351,60.448,119.535,0.0,22.6691,72.4237,0.0,0.275461
288.7,970.0,289.102,278.668,-417.824,691.332,273.508,63.1103,108.985,0.0,23.801,77.3285,0.0,0.283295
288.6,975.0,289.002,284.56,-417.322,690.44,273.118,65.9521,99.1333,0.0,25.0194,82.7217,0.0,0.291468
288.5,962.0,288.9017,272.442,-415.267,689.558,274.291,68.99,90.0019,0.0,26.3334,88.6659,0.0,0.3
288.4,989.0,288.802,300.35,-411.517,688.65,277.134,72.2422,81.5964,0.0,27.7531,95.2329,0.0,0.308913
288.3,967.0,288.702,279.268,-405.981,687.732,281.751,75.7289,73.9077,0.0,29.2901,102.506,0.0,0.318229
288.2,1044.0,288.602,357.277,-398.47,686.723,288.254,79.4732,66.9147,0.0,30.9576,110.58,0.0,0.327973
288.1,1052.0,288.502,366.423,-388.814,685.577,296.763,83.5004,60.5866,0.0,32.7707,119.567,0.0,0.338172
288.0,1008.0,288.4017,323.516,-377.072,684.484,307.412,87.8394,54.8859,0.0,34.7469,129.591,0.0,0.348854
287.9,1055.0,288.302,371.618,-363.025,683.382,320.358,92.5223,49.77,0.0,36.9059,140.799,0.0,0.360052
287.8,1083.0,288.202,400.841,-346.379,682.159,335.779,97.5857,45.1938,0.0,39.2711,153.357,0.0,0.371797
287.7,1052.0,288.102,371.064,-327.049,680.936,353.887,103.071,41.1107,0.0,41.8692,167.452,0.0,0.384127
287.6,1079.0,288.002,399.285,-304.792,679.715,374.923,109.024,37.4748,0.0,44.7316,183.295,0.0,0.397082
287.5,1116.0,287.9017,437.611,-279.225,678.389,399.164,115.498,34.2411,0.0,47.895,201.119,0.0,0.410703
287.4,1153.0,287.802,476.058,-250.021,676.942,426.921,122.555,31.3672,0.0,51.4027,221.172,0.0,0.425039
287.3,1168.0,287.702,492.593,-216.879,675.407,458.529,130.261,28.8131,0.0,55.3059,243.708,0.0,0.440138
287.2,1178.0,287.602,504.172,-179.494,673.828,494.334,138.698,26.542,0.0,59.6658,268.972,0.0,0.456058
287.1,1252.0,287.502,579.889,-137.441,672.111,534.669,147.955,24.5206,0.0,64.5554,297.165,0.0,0.472858
287.0,1254.0,287.4017,583.733,-90.4598,670.267,579.807,158.139,22.7185,0.0,70.0628,328.396,0.0,0.490605
286.9,1250.0,287.302,581.579,-38.5234,668.421,629.897,169.372,21.1087,0.0,76.295,362.613,0.0,0.509371
286.8,1329.0,287.202,662.55,18.4274,666.45,684.877,181.796,19.6675,0.0,83.3825,399.502,0.0,0.529236
286.7,1344.0,287.102,679.677,80.0402,664.323,744.363,195.581,18.3738,0.0,91.4864,438.372,0.0,0.550287
286.6,1449.0,287.002,787,145.546,662,807.545,210.925,17.2091,0.0,100.806,478.032,0.0,0.572621
286.5,1563.0,286.9017,903.679,213.795,659.321,873.116,228.066,16.1574,0.0,111.591,516.705,0.0,0.596345
286.4,1590.0,286.802,933.59,282.902,656.41,939.312,247.29,15.2049,0.0,124.158,552.038,0.0,0.621576
286.3,1620.0,286.702,966.6,350.736,653.4,1004.14,268.943,14.3394,0.0,138.907,581.298,0.0,0.648445
286.2,1649.0,286.602,998.714,415.506,650.286,1065.79,293.451,13.5506,0.0,156.357,601.757,0.0,0.677097
286.1,1731.0,286.502,1084.01,476.318,646.986,1123.3,321.342,12.8295,0.0,177.181,611.244,0.0,0.707694
286.0,1812.0,286.4017,1168.58,533.712,643.418,1177.13,353.28,12.1683,0.0,202.263,608.678,0.0,0.740415
285.9,1906.0,286.302,1266.44,590.02,639.56,1229.58,390.111,11.5602,0.0,232.777,594.355,0.0,0.775464
285.8,1962.0,286.202,1326.55,649.463,635.452,1284.92,432.933,10.9995,0.0,270.298,569.872,0.0,0.813065
285.7,1944.0,286.102,1312.73,717.908,631.27,1349.18,483.189,10.4812,0.0,316.949,537.705,0.0,0.853474
285.6,2124.0,286.002,1497.18,803.16,626.819,1429.98,542.823,10.0009,0.0,375.614,500.644,0.0,0.896977
285.5,2178.0,285.9017,1556.02,914.507,621.981,1536.49,614.506,9.55464,0.0,450.184,461.3,0.0,0.9439
285.4,2305.0,285.802,1688.16,1062.92,616.842,1679.76,702.01,9.13924,0.0,545.822,421.791,0.0,0.994612
285.3,2522.0,285.702,1910.86,1262.18,611.14,1873.31,810.824,8.75174,0.0,669.047,383.643,0.0,1.04953
285.2,2797.0,285.602,2192.36,1529.04,604.639,2133.68,949.232,8.38957,0.0,827.125,347.822,0.0,1.10914
285.1,3084.0,285.502,2486.77,1882.66,597.226,2479.88,1130.31,8.05045,0.0,1025.51,314.845,0.0,1.17399
285.0,3345.0,285.4017,2756.08,2341.82,588.92,2930.74,1375.88,7.73238,0.0,1260.99,284.901,0.0,1.24471
284.9,3971.0,285.302,3391.82,2921.42,579.179,3500.6,1724.92,7.43357,0.0,1508.96,257.964,0.0,1.32203
284.8,4586.0,285.202,4018.56,3639.09,567.439,4206.53,2252.24,7.15242,0.0,1711.85,233.879,0.0,1.40681
284.7,5786.0,285.102,5233.22,4569.21,552.781,5121.99,3107.12,6.88752,0.0,1794.06,212.421,0.0,1.50005
284.6,7339.0,285.002,6805.29,5954.98,533.709,6488.69,4570.09,6.63759,0.0,1717.02,193.34,0.0,1.6029
284.5,9569.0,284.9017,9060.43,8245.12,508.573,8753.69,7052.17,6.40147,0.0,1517.02,176.382,0.0,1.71674
284.4,12716.0,284.802,12241.2,11790,474.825,12264.8,10826,6.17814,0.0,1269.44,161.303,0.0,1.84321
284.3,16689.0,284.702,16259.3,16138.2,429.671,16567.9,15379.1,5.96665,0.0,1032.97,147.881,0.0,1.98424
284.2,20094.0,284.602,19721.3,19596.3,372.667,19969,18992,5.76615,0.0,833.191,135.915,0.0,2.14218
284.1,20745.0,284.502,20436,20121.6,309.045,20430.6,19623.7,5.57587,0.0,673.809,125.225,0.0,2.31984
284.0,18010.0,284.4017,17761.5,17174.6,248.529,17423.1,16750,5.39511,0.0,549.518,115.656,0.0,2.52069
283.9,12891.0,284.302,12690.7,12317.3,200.284,12517.6,11949.5,5.22322,0.0,453.057,107.069,0.0,2.74896
283.8,8055.0,284.202,7887.32,7711.93,167.682,7879.61,7394.33,5.05963,0.0,377.863,99.3448,0.0,3.0099
283.7,4594.0,284.102,4445.86,4491.94,148.142,4640.08,4220.76,4.90378,0.0,318.728,92.3806,0.0,3.31013
283.6,2738.0,284.002,2601.02,2618.13,136.978,2755.11,2388.89,4.75519,0.0,271.72,86.0859,0.0,3.658
283.5,1805.0,283.9017,1674.8,1607.84,130.204,1738.05,1415.06,4.61339,0.0,233.928,80.3824,0.0,4.06425
283.4,1346.0,283.802,1220.38,1054.15,125.617,1179.77,892.343,4.47799,0.0,203.204,75.2024,0.0,4.54287
283.3,995.0,283.702,872.699,729.416,122.301,851.717,593.811,4.34857,0.0,177.958,70.4868,0.0,5.11232
283.2,786.0,283.602,666.137,524.277,119.863,644.14,410.928,4.2248,0.0,157.006,66.1842,0.0,5.79749
283.1,614.0,283.502,495.978,386.745,118.022,504.767,292.326,4.10634,0.0,139.453,62.2497,0.0,6.63251
283.0,525.0,283.4017,408.411,290.44,116.589,407.029,212.106,3.99289,0.0,124.621,58.6441,0.0,7.66539
282.9,449.0,283.302,333.587,220.896,115.413,336.31,156.14,3.88416,0.0,111.987,55.333,0.0,8.96555
282.8,419.0,283.202,304.598,169.622,114.402,284.025,116.174,3.77988,0.0,101.147,52.2863,0.0,10.6367
282.7,408.0,283.102,294.547,131.451,113.453,244.904,87.1238,3.67982,0.0,91.782,49.4775,0.0,12.8405
282.6,356.0,283.002,243.399,103.064,112.601,215.665,65.7155,3.58375,0.0,83.6404,46.883,0.0,15.8425
282.5,327.0,282.9017,215.126,82.503,111.874,194.377,49.7714,3.49145,0.0,76.5211,44.4824,0.0,20.111
282.4,301.0,282.802,189.767,69.0395,111.233,180.272,37.8,3.40272,0.0,70.2621,42.2571,0.0,26.5504
282.3,329.0,282.702,218.414,63.4888,110.586,174.075,28.7561,3.31738,0.0,64.7319,40.191,0.0,37.0786
282.2,334.0,282.602,224.115,69.2682,109.885,179.153,21.8928,3.23526,0.0,59.8229,38.2696,0.0,55.9327
282.1,351.0,282.502,241.853,94.3684,109.147,203.515,16.6676,3.1562,0.0,55.4463,36.4799,0.0,91.7651
282.0,381.0,282.4017,272.668,152.025,108.332,260.357,12.6815,3.08004,0.0,51.5286,34.8105,0.0,158.257
281.9,434.0,282.302,326.618,253.289,107.382,360.672,9.63715,3.00664,0.0,48.0083,33.251,0.0,266.768
281.8,588.0,282.202,481.899,387.9,106.101,494.001,7.31141,2.93586,0.0,44.834,31.7922,0.0,407.128
281.7,710.0,282.102,605.622,508.897,104.378,613.276,5.53536,2.86759,0.0,41.962,30.4257,0.0,532.485
281.6,748.0,282.002,645.604,552.534,102.396,654.93,4.18046,2.8017,0.0,39.3554,29.144,0.0,579.448
281.5,707.0,281.9017,606.588,490.632,100.412,591.044,3.14844,2.73808,0.0,36.9828,27.9405,0.0,520.234
281.4,608.0,281.802,509.356,357.563,98.6441,456.208,2.36392,2.67664,0.0,34.8171,26.8088,0.0,389.541
281.3,393.0,281.702,295.631,216.889,97.3688,314.258,1.76899,2.61726,0.0,32.8352,25.7436,0.0,251.293
281.2,295.0,281.602,198.414,111.063,96.5861,207.649,1.31909,2.55985,0.0,31.0168,24.7397,0.0,148.013
281.1,224.0,281.502,127.931,46.6096,96.0691,142.679,0.979907,2.50434,0.0,29.3446,23.7927,0.0,86.0571
281.0,194.0,281.4017,98.2893,11.1163,95.7107,106.827,0.725069,2.45063,0.0,27.8033,22.8984,0.0,52.9495
280.9,184.0,281.302,88.5854,-8.58332,95.4146,86.8313,0.534296,2.39865,0.0,26.3799,22.053,0.0,35.4655
280.8,173.0,281.202,77.8491,-20.4961,95.1509,74.6548,0.392035,2.34832,0.0,25.0625,21.2529,0.0,25.599
280.7,149.0,281.102,54.0581,-28.5215,94.9419,66.4205,0.286382,2.29957,0.0,23.841,20.4952,0.0,19.4983
280.6,132.0,281.002,37.2027,-34.4331,94.7973,60.3643,0.208252,2.25234,0.0,22.7062,19.7768,0.0,15.4206
280.5,133.0,280.9017,38.3223,-39.0393,94.6777,55.6384,0.15073,2.20657,0.0,21.6503,19.0952,0.0,12.5356
280.4,140.0,280.802,45.455,-42.752,94.545,51.793,0.108576,2.16219,0.0,20.6661,18.4478,0.0,10.4083
280.3,125.0,280.702,30.5755,-45.8581,94.4245,48.5664,0.0778293,2.11915,0.0,19.7473,17.8325,0.0,8.78956
280.2,133.0,280.602,38.6852,-48.5197,94.3148,45.795,0.0555121,2.07739,0.0,18.8882,17.2472,0.0,7.52671
280.1,118.0,280.502,23.7842,-50.8446,94.2158,43.3712,0.039394,2.03686,0.0,18.0838,16.69,0.0,6.52116
280.0,117.0,280.4017,22.8581,-52.9213,94.1419,41.2206,0.0278121,1.99752,0.0,17.3296,16.1591,0.0,5.70666
279.9,121.0,280.302,26.937,-54.7726,94.063,39.2904,0.0195328,1.95932,0.0,16.6214,15.6529,0.0,5.03722
279.8,135.0,280.202,41.0447,-56.4138,93.9553,37.5415,0.0136457,1.92221,0.0,15.9556,15.17,0.0,4.48003
279.7,131.0,280.102,37.1686,-57.8868,93.8314,35.9446,0.00948185,1.88616,0.0,15.329,14.7089,0.0,4.01113
279.6,120.0,280.002,26.2691,-59.2538,93.7309,34.4771,0.00655289,1.85111,0.0,14.7384,14.2683,0.0,3.61267
279.5,126.0,279.9017,32.362,-60.517,93.638,33.121,0.0045039,1.81705,0.0,14.1813,13.8471,0.0,3.27114
279.4,131.0,279.802,37.4726,-61.6651,93.5274,31.8623,0.00307849,1.78392,0.0,13.655,13.4441,0.0,2.97611
279.3,115.0,279.702,21.5662,-62.7447,93.4338,30.6891,0.00209245,1.75169,0.0,13.1575,13.0584,0.0,2.71947
279.2,114.0,279.602,20.633,-63.7749,93.367,29.592,0.00141424,1.72034,0.0,12.6866,12.6888,0.0,2.49481
279.1,126.0,279.502,32.7176,-64.7195,93.2824,28.563,0.00095043,1.68983,0.0,12.2405,12.3347,0.0,2.297
279.0,135.0,279.4017,41.8357,-65.5691,93.1643,27.5952,0.000635078,1.66013,0.0,11.8174,11.9951,0.0,2.12191
278.9,120.0,279.302,26.9446,-66.3724,93.0554,26.6829,0.000421917,1.63121,0.0,11.4159,11.6692,0.0,1.96618
278.8,101.0,279.202,8.0,-67.1788,93.0,25.8212,0.000278678,1.60304,0.0,11.0345,11.3564,0.0,1.82704
278.7,93.0,279.102,0.0,-67.9944,93.0,25.0056,0.000182995,1.5756,0.0,10.6718,11.0559,0.0,1.70221
278.6,99.0,279.002,6.0,-68.7675,93.0,24.2325,0.000119459,1.54887,0.0,10.3267,10.767,0.0,1.58979
278.5,111.0,278.9017,18.0,-69.5016,93.0,23.4984,7.7523e-05,1.52281,0.0,9.99798,10.4893,0.0,1.48818
278.4,104.0,278.802,11.0,-70.1996,93.0,22.8004,5.00103e-05,1.49741,0.0,9.68471,10.2222,0.0,1.39604
278.3,113.0,278.702,20.0,-70.8641,93.0,22.1359,3.20695e-05,1.47265,0.0,9.38592,9.96506,0.0,1.31222
278.2,112.0,278.602,19.0,-71.4976,93.0,21.5024,2.04417e-05,1.4485,0.0,9.10073,9.71746,0.0,1.23574
278.1,119.0,278.502,26.0,-72.102,93.0,20.898,1.29516e-05,1.42494,0.0,8.82831,9.47893,0.0,1.16577
278.0,126.0,278.4017,33.0,-72.6795,93.0,20.3205,8.15639e-06,1.40195,0.0,8.56793,9.24902,0.0,1.1016
277.9,103.0,278.302,10.0,-73.2317,93.0,19.7683,5.10542e-06,1.37952,0.0,8.31888,9.02735,0.0,1.04259
277.8,102.0,278.202,9.0,-73.7601,93.0,19.2399,3.17624e-06,1.35763,0.0,8.08052,8.8135,0.0,0.988208
277.7,109.0,278.102,16.0,-74.2664,93.0,18.7336,1.96397e-06,1.33625,0.0,7.85225,8.60714,0.0,0.937981
277.6,102.0,278.002,9.0,-74.7517,93.0,18.2483,1.20694e-06,1.31538,0.0,7.6335,8.4079,0.0,0.891494
277.5,97.0,277.9017,4.0,-75.2174,93.0,17.7826,7.37153e-07,1.295,0.0,7.42375,8.21547,0.0,0.848384
277.4,101.0,277.802,8.0,-75.6645,93.0,17.3355,4.47447e-07,1.27509,0.0,7.22252,8.02955,0.0,0.808333
277.3,98.0,277.702,5.0,-76.0941,93.0,16.9059,2.69917e-07,1.25564,0.0,7.02935,7.84984,0.0,0.771056