File: XPS/LG4X-result/MX-UT-0.1-1-O1s.csv
#No of rows lightened (2D detector)1(if not using 2D detector, value is 1 and can be ignored!)
raw_x,raw_y,corrected x,data-bg,sum_components,bg,sum_fit,bg_shirley_,C-O,TiO2,C-Ti-(OH)x
537.5,260.943,537.9255,260.942,57.8385,0.000469149,57.8389,0.000469149,0.000999686,9.83092,48.0065
537.4,157.277,537.8255,157.277,59.5672,0.000468616,59.5677,0.000468616,0.00172919,10.0722,49.4933
537.3,218.578,537.7255,218.577,61.3748,0.000468295,61.3753,0.000468295,0.00295905,10.3225,51.0493
537.2,205.917,537.626,205.917,63.2664,0.000467848,63.2669,0.000467848,0.00500947,10.5823,52.6791
537.1,108.169,537.526,108.168,65.2476,0.000467427,65.248,0.000467427,0.00838996,10.852,54.3872
537.0,36.2841,537.4255,36.2836,67.3247,0.000467206,67.3252,0.000467206,0.0139014,11.1321,56.1787
536.9,29.3366,537.3255,29.3361,69.505,0.000467132,69.5055,0.000467132,0.0227869,11.4231,58.0591
536.8,105.444,537.2255,105.444,71.797,0.000467072,71.7974,0.000467072,0.0369524,11.7258,60.0342
536.7,186.678,537.126,186.678,74.2103,0.000466857,74.2108,0.000466857,0.059283,12.0406,62.1105
536.6,282.053,537.026,282.053,76.7571,0.000466475,76.7575,0.000466475,0.0940907,12.3682,64.2947
536.5,108.365,536.9255,108.365,79.4518,0.000465899,79.4522,0.000465899,0.147738,12.7094,66.5946
536.4,49.4916,536.8255,49.4911,82.3126,0.000465677,82.313,0.000465677,0.229492,13.0649,69.0181
536.3,29.5548,536.7255,29.5543,85.3625,0.000465576,85.363,0.000465576,0.352674,13.4356,71.5743
536.2,64.6302,536.626,64.6297,88.631,0.000465516,88.6315,0.000465516,0.536178,13.8221,74.2727
536.1,134.79,536.526,134.789,92.1561,0.000465384,92.1565,0.000465384,0.806442,14.2257,77.124
536.0,295.134,536.4255,295.133,95.9867,0.000465108,95.9871,0.000465108,1.19996,14.6471,80.1396
535.9,205.534,536.3255,205.534,100.186,0.000464505,100.187,0.000464505,1.76641,15.0875,83.3323
535.8,131.804,536.2255,131.803,104.836,0.000464085,104.837,0.000464085,2.57244,15.548,86.7159
535.7,251.11,536.126,251.11,110.042,0.000463816,110.042,0.000463816,3.70619,16.0299,90.3055
535.6,215.483,536.026,215.483,115.935,0.000463303,115.935,0.000463303,5.28251,16.5346,94.1178
535.5,170.792,535.9255,170.792,122.683,0.000462862,122.684,0.000462862,7.44874,17.0635,98.1713
535.4,119.024,535.8255,119.024,130.495,0.000462513,130.496,0.000462513,10.3909,17.618,102.486
535.3,182.265,535.7255,182.265,139.625,0.00046227,139.626,0.00046227,14.3402,18.2001,107.085
535.2,379.715,535.626,379.714,150.382,0.000461898,150.383,0.000461898,19.5789,18.8114,111.992
535.1,230.203,535.526,230.202,163.134,0.000461122,163.135,0.000461122,26.4453,19.454,117.235
535.0,390.699,535.4255,390.699,178.312,0.000460651,178.312,0.000460651,35.3377,20.1301,122.844
534.9,229.195,535.3255,229.195,196.411,0.000459853,196.411,0.000459853,46.7152,20.842,128.853
534.8,169.514,535.2255,169.514,217.988,0.000459384,217.988,0.000459384,61.0953,21.5922,135.3
534.7,136.759,535.126,136.759,243.658,0.000459038,243.659,0.000459038,79.0473,22.3836,142.227
534.6,244.064,535.026,244.063,274.08,0.000458759,274.081,0.000458759,101.18,23.2193,149.681
534.5,306.504,534.9255,306.504,309.941,0.00045826,309.942,0.00045826,128.125,24.1026,157.714
534.4,222.928,534.8255,222.927,351.932,0.000457633,351.932,0.000457633,160.51,25.0372,166.385
534.3,385.414,534.7255,385.414,400.716,0.000457178,400.717,0.000457178,198.93,26.027,175.76
534.2,450.083,534.626,450.082,456.899,0.00045639,456.899,0.00045639,243.908,27.0767,185.914
534.1,471.82,534.526,471.82,520.98,0.000455471,520.98,0.000455471,295.858,28.191,196.93
534.0,634.705,534.4255,634.705,593.314,0.000454506,593.314,0.000454506,355.034,29.3754,208.904
533.9,740.806,534.3255,740.805,674.068,0.000453209,674.068,0.000453209,421.489,30.6359,221.943
533.8,745.995,534.2255,745.994,763.177,0.000451696,763.177,0.000451696,495.03,31.979,236.167
533.7,900.312,534.126,900.311,860.311,0.000450171,860.311,0.000450171,575.184,33.4123,251.714
533.6,902.754,534.026,902.754,964.852,0.000448331,964.852,0.000448331,661.168,34.9438,268.74
533.5,945.232,533.9255,945.232,1075.88,0.000446486,1075.88,0.000446486,751.877,36.5828,287.42
533.4,1161.92,533.8255,1161.92,1192.18,0.000444555,1192.18,0.000444555,845.884,38.3396,307.955
533.3,1215.82,533.7255,1215.82,1312.26,0.00044218,1312.26,0.00044218,941.465,40.2256,330.571
533.2,1519.01,533.626,1519.01,1434.42,0.000439696,1434.42,0.000439696,1036.64,42.2539,355.524
533.1,1714.59,533.526,1714.59,1556.77,0.000436592,1556.77,0.000436592,1129.23,44.439,383.101
533.0,1578.23,533.4255,1578.23,1677.35,0.000433088,1677.35,0.000433088,1216.92,46.7974,413.625
532.9,1743.89,533.3255,1743.89,1794.21,0.000429863,1794.21,0.000429863,1297.4,49.348,447.456
532.8,2012.89,533.2255,2012.89,1905.51,0.000426299,1905.51,0.000426299,1368.41,52.1122,484.986
532.7,1923.04,533.126,1923.04,2009.63,0.000422186,2009.63,0.000422186,1427.87,55.1142,526.645
532.6,2211.35,533.026,2211.35,2105.24,0.000418256,2105.24,0.000418256,1473.97,58.3822,572.884
532.5,2311.96,532.9255,2311.96,2191.4,0.000413737,2191.4,0.000413737,1505.29,61.9482,624.166
532.4,2181.56,532.8255,2181.56,2267.61,0.000409013,2267.62,0.000409013,1520.83,65.8496,680.936
532.3,2320.16,532.7255,2320.16,2333.81,0.000404555,2333.81,0.000404555,1520.09,70.1295,743.585
532.2,2452.98,532.626,2452.98,2390.33,0.000399813,2390.33,0.000399813,1503.11,74.8382,812.381
532.1,2419.88,532.526,2419.88,2437.83,0.000394801,2437.83,0.000394801,1470.41,80.0345,887.386
532.0,2228.59,532.4255,2228.59,2477.16,0.000389855,2477.16,0.000389855,1423.04,85.7878,968.331
531.9,2517.39,532.3255,2517.39,2509.11,0.000385301,2509.11,0.000385301,1362.47,92.18,1054.47
531.8,2664.54,532.2255,2664.54,2534.21,0.000380157,2534.21,0.000380157,1290.52,99.3085,1144.39
531.7,2470.64,532.126,2470.64,2552.43,0.000374712,2552.43,0.000374712,1209.29,107.29,1235.85
531.6,2676.76,532.026,2676.76,2563,0.000369663,2563,0.000369663,1121.06,116.265,1325.68
531.5,2617,531.9255,2617,2564.31,0.000364193,2564.31,0.000364193,1028.15,126.403,1409.76
531.4,2496.09,531.8255,2496.09,2554,0.000358845,2554,0.000358845,932.849,137.914,1483.24
531.3,2631.19,531.7255,2631.19,2529.46,0.000353744,2529.46,0.000353744,837.331,151.051,1541.07
531.2,2602.37,531.626,2602.37,2488.37,0.000348368,2488.37,0.000348368,743.554,166.134,1578.68
531.1,2435.4,531.526,2435.4,2429.58,0.00034305,2429.58,0.00034305,653.218,183.559,1592.8
531.0,2189.1,531.4255,2189.1,2353.69,0.000338073,2353.69,0.000338073,567.718,203.831,1582.14
530.9,2287.68,531.3255,2287.68,2263.41,0.000333599,2263.41,0.000333599,488.132,227.591,1547.69
530.8,2032.14,531.2255,2032.14,2163.34,0.000328924,2163.34,0.000328924,415.213,255.672,1492.45
530.7,1881.27,531.126,1881.27,2059.44,0.000324772,2059.44,0.000324772,349.409,289.159,1420.87
530.6,1863.26,531.026,1863.26,1958.36,0.000320927,1958.36,0.000320927,290.889,329.494,1337.98
530.5,1860.24,530.9255,1860.24,1866.88,0.00031712,1866.88,0.00031712,239.58,378.612,1248.69
530.4,1819.19,530.8255,1819.19,1791.61,0.000313318,1791.61,0.000313318,195.21,439.153,1157.24
530.3,1721.02,530.7255,1721.02,1739.08,0.000309601,1739.08,0.000309601,157.357,514.773,1066.95
530.2,1722.77,530.626,1722.77,1716.27,0.000306084,1716.27,0.000306084,125.486,610.607,980.178
530.1,1885.66,530.526,1885.66,1731.42,0.000302563,1731.42,0.000302563,99.0007,733.979,898.443
530.0,2113.86,530.4255,2113.86,1795.28,0.00029871,1795.28,0.00029871,77.2697,895.438,822.575
529.9,2177.29,530.3255,2177.29,1922.78,0.00029439,1922.79,0.00029439,59.6636,1110.22,752.902
529.8,2364.92,530.2255,2364.92,2134.97,0.000289941,2134.97,0.000289941,45.5764,1400,689.4
529.7,2666.95,530.126,2666.95,2460.1,0.000285108,2460.1,0.000285108,34.4429,1793.84,631.822
529.6,3129.59,530.026,3129.59,2929.74,0.000279658,2929.74,0.000279658,25.7507,2324.19,579.793
529.5,3478.87,529.9255,3478.87,3557.97,0.000273263,3557.97,0.000273263,19.0462,3006.05,532.872
529.4,4117.95,529.8255,4117.95,4282.66,0.000266154,4282.66,0.000266154,13.9366,3778.13,490.596
529.3,4758.05,529.7255,4758.05,4881.22,0.000257739,4881.22,0.000257739,10.0887,4418.63,452.51
529.2,4830.72,529.626,4830.72,5021.8,0.000248015,5021.8,0.000248015,7.22507,4596.4,418.183
529.1,4649.3,529.526,4649.3,4586.57,0.000238144,4586.57,0.000238144,5.11894,4194.23,387.216
529.0,4273.44,529.4255,4273.44,3824.27,0.000228643,3824.27,0.000228643,3.58795,3461.44,359.244
528.9,3192.41,529.3255,3192.41,3046.56,0.00021991,3046.56,0.00021991,2.48796,2710.13,333.939
528.8,2508.97,529.2255,2508.97,2401.76,0.000213386,2401.76,0.000213386,1.70675,2089.04,311.01
528.7,1846.46,529.126,1846.46,1909.47,0.000208259,1909.47,0.000208259,1.15831,1618.11,290.196
528.6,1458.1,529.026,1458.1,1542.8,0.000204486,1542.8,0.000204486,0.777698,1270.75,271.267
528.5,1046.1,528.9255,1046.1,1269.27,0.000201506,1269.27,0.000201506,0.516566,1014.74,254.02
528.4,647.458,528.8255,647.458,1062.58,0.000199368,1062.58,0.000199368,0.339446,823.971,238.274
528.3,579.44,528.7255,579.44,903.715,0.000198045,903.715,0.000198045,0.220671,679.622,223.872
528.2,479.287,528.626,479.286,779.388,0.000196861,779.388,0.000196861,0.141922,568.572,210.674
528.1,197.828,528.526,197.828,680.391,0.000195882,680.392,0.000195882,0.0902989,481.744,198.557
528.0,245.183,528.4255,245.182,600.281,0.000195477,600.282,0.000195477,0.0568389,412.813,187.412
527.9,256.584,528.3255,256.584,534.494,0.000194976,534.495,0.000194976,0.0353947,357.318,177.141
527.8,293.024,528.2255,293.023,479.747,0.000194452,479.747,0.000194452,0.0218052,312.064,167.661
527.7,220.434,528.126,220.434,433.639,0.000193853,433.64,0.000193853,0.0132896,274.731,158.895
527.6,171.748,528.026,171.748,394.39,0.000193403,394.39,0.000193403,0.00801298,243.606,150.776
527.5,206.05,527.9255,206.05,360.656,0.000193052,360.656,0.000193052,0.00477975,217.407,143.244
527.4,258.422,527.8255,258.422,331.41,0.000192631,331.411,0.000192631,0.00282063,195.161,136.246
527.3,370.925,527.7255,370.925,305.858,0.000192103,305.858,0.000192103,0.00164671,176.122,129.734
527.2,204.385,527.626,204.385,283.375,0.000191345,283.375,0.000191345,0.000951079,159.709,123.666
527.1,79.6127,527.526,79.6125,263.467,0.000190927,263.467,0.000190927,0.000543433,145.464,118.002
527.0,161.806,527.4255,161.806,245.736,0.000190764,245.737,0.000190764,0.000307189,133.027,112.71
526.9,81.0,527.3255,80.9998,229.862,0.000190434,229.862,0.000190434,0.000171789,122.105,107.757
526.8,0.0,527.2255,-0.000190268,215.582,0.000190268,215.582,0.000190268,9.50413e-05,112.465,103.116
526.7,64.0,527.126,63.9998,202.678,0.000190268,202.678,0.000190268,5.20188e-05,103.915,98.7629
526.6,190.0,527.026,190,190.972,0.000190137,190.972,0.000190137,2.81669e-05,96.298,94.6739
526.5,268.0,526.9255,268,180.312,0.000189749,180.312,0.000189749,1.50885e-05,89.4834,90.8287
526.4,205.0,526.8255,205,170.572,0.000189201,170.572,0.000189201,7.99618e-06,83.3633,87.2088
526.3,172.0,526.7255,172,161.644,0.000188783,161.644,0.000188783,4.19227e-06,77.8468,83.7972
526.2,29.0,526.626,28.9998,153.436,0.000188431,153.436,0.000188431,2.17443e-06,72.8576,80.5784
526.1,238.0,526.526,238,145.869,0.000188372,145.87,0.000188372,1.11576e-06,68.3309,77.5386
526.0,98.0,526.4255,97.9998,138.876,0.000187885,138.876,0.000187885,5.66404e-07,64.2114,74.6649
525.9,148.0,526.3255,148,132.398,0.000187685,132.398,0.000187685,2.84453e-07,60.4519,71.9456
525.8,181.0,526.2255,181,126.382,0.000187383,126.382,0.000187383,1.41327e-07,57.0119,69.37
525.7,20.0,526.126,19.9998,120.785,0.000187013,120.785,0.000187013,6.94656e-08,53.8563,66.9284
525.6,169.0,526.026,169,115.566,0.000186972,115.567,0.000186972,3.37788e-08,50.9547,64.6116
525.5,251.0,525.9255,251,110.692,0.000186627,110.692,0.000186627,1.62498e-08,48.2807,62.4115
525.4,336.0,525.8255,336,106.132,0.000186114,106.132,0.000186114,7.73357e-09,45.8111,60.3205
525.3,355.0,525.7255,355,101.857,0.000185427,101.857,0.000185427,3.64119e-09,43.5256,58.3315
525.2,319.0,525.626,319,97.8447,0.000184702,97.8449,0.000184702,1.69604e-09,41.4065,56.4382
525.1,129.0,525.526,129,94.0726,0.00018405,94.0727,0.00018405,7.8155e-10,39.4381,54.6345
525.0,193.0,525.4255,193,90.5213,0.000183786,90.5215,0.000183786,3.56294e-10,37.6064,52.9149