File: XPS/LG4X-result/MX-UT-0.5-O1s_nobg.csv
#No of rows lightened (2D detector)1(if not using 2D detector, value is 1 and can be ignored!)
raw_x,raw_y,corrected x,data-bg,sum_components,bg,sum_fit,bg_shirley_,C_1,C_2,C_3
540.0,223.0,540.6539,66.8589,1.321,156.141,157.462,156.141,4.20814e-07,1.321,1.23969e-102
539.9,141.0,540.5539,-15.1411,1.3457,156.141,157.487,156.141,7.22777e-07,1.3457,1.1866e-100
539.8,150.0,540.4539,-6.14111,1.3711,156.141,157.512,156.141,1.23327e-06,1.3711,1.08751e-98
539.7,228.0,540.354,71.8589,1.39723,156.141,157.538,156.141,2.0905e-06,1.39723,9.54342e-97
539.6,244.0,540.2539,87.8589,1.42412,156.141,157.565,156.141,3.52032e-06,1.42411,8.01891e-95
539.5,353.0,540.1539,196.859,1.45178,156.141,157.593,156.141,5.88917e-06,1.45178,6.4516e-93
539.4,313.0,540.0539,156.859,1.48027,156.141,157.621,156.141,9.78735e-06,1.48026,4.97004e-91
539.3,59.0,539.9539,-97.1411,1.5096,156.141,157.651,156.141,1.6159e-05,1.50959,3.666e-89
539.2,210.0,539.854,53.8589,1.53982,156.141,157.681,156.141,2.65036e-05,1.53979,2.5892e-87
539.1,312.0,539.7539,155.859,1.57096,156.141,157.712,156.141,4.31852e-05,1.57092,1.75097e-85
539.0,0.0,539.6539,-156.141,1.60306,156.141,157.744,156.141,6.99043e-05,1.60299,1.13379e-83
538.9,124.099,539.5539,-32.0418,1.63618,156.141,157.777,156.141,0.000112412,1.63606,7.02955e-82
538.8,277.42,539.4539,121.279,1.67035,156.141,157.811,156.141,0.000179581,1.67017,4.17313e-80
538.7,150.763,539.354,-5.37814,1.70564,156.141,157.847,156.141,0.000285001,1.70535,2.37212e-78
538.6,142.998,539.2539,-13.1432,1.74211,156.141,157.883,156.141,0.000449338,1.74166,1.29108e-76
538.5,121.209,539.1539,-34.9318,1.77984,156.141,157.921,156.141,0.000703783,1.77914,6.72836e-75
538.4,123.405,539.0539,-32.7361,1.81894,156.141,157.96,156.141,0.00109508,1.81784,3.35742e-73
538.3,94.5793,538.9539,-61.5618,1.85951,156.141,158.001,156.141,0.00169274,1.85782,1.60414e-71
538.2,293.89,538.854,137.749,1.90173,156.141,158.043,156.141,0.0025994,1.89914,7.33872e-70
538.1,230.309,538.7539,74.1683,1.94581,156.141,158.087,156.141,0.00396549,1.94184,3.21468e-68
538.0,123.592,538.6539,-32.5486,1.99202,156.141,158.133,156.141,0.0060098,1.98601,1.34833e-66
537.9,140.804,538.5539,-15.3371,2.04075,156.141,158.182,156.141,0.00904821,2.0317,5.41496e-65
537.8,127.018,538.4539,-29.1229,2.09252,156.141,158.234,156.141,0.0135333,2.07899,2.08226e-63
537.7,148.238,538.354,-7.90271,2.14806,156.141,158.289,156.141,0.0201088,2.12795,7.6668e-62
537.6,235.545,538.2539,79.4043,2.20834,156.141,158.349,156.141,0.029683,2.17866,2.70293e-60
537.5,260.943,538.1539,104.801,2.27473,156.141,158.416,156.141,0.0435279,2.2312,9.1242e-59
537.4,157.277,538.0539,1.13597,2.34908,156.141,158.49,156.141,0.0634114,2.28567,2.94914e-57
537.3,218.578,537.9539,62.4366,2.43393,156.141,158.575,156.141,0.0917712,2.34216,9.12719e-56
537.2,205.917,537.854,49.7762,2.53272,156.141,158.674,156.141,0.131943,2.40077,2.7047e-54
537.1,108.169,537.7539,-47.9726,2.65007,156.141,158.791,156.141,0.188453,2.46161,7.67434e-53
537.0,36.2841,537.6539,-119.857,2.7922,156.141,158.933,156.141,0.2674,2.5248,2.08499e-51
536.9,29.3366,537.5539,-126.805,2.96738,156.141,159.108,156.141,0.376927,2.59045,5.42384e-50
536.8,105.444,537.4539,-50.6967,3.18653,156.141,159.328,156.141,0.52783,2.6587,1.35098e-48
536.7,186.678,537.354,30.537,3.46397,156.141,159.605,156.141,0.734294,2.72968,3.22206e-47
536.6,282.053,537.2539,125.912,3.81836,156.141,159.959,156.141,1.01481,2.80354,7.35798e-46
536.5,108.365,537.1539,-47.7758,4.27374,156.141,160.415,156.141,1.39328,2.88045,1.60888e-44
536.4,49.4916,537.0539,-106.65,4.86092,156.141,161.002,156.141,1.90035,2.96057,3.36844e-43
536.3,29.5548,536.9539,-126.586,5.61902,156.141,161.76,156.141,2.57494,3.04408,6.75265e-42
536.2,64.6302,536.854,-91.511,6.59727,156.141,162.738,156.141,3.46609,3.13117,1.29617e-40
536.1,134.79,536.7539,-21.3514,7.8571,156.141,163.998,156.141,4.63503,3.22206,2.38225e-39
536.0,295.134,536.6539,138.992,9.47448,156.141,165.616,156.141,6.1575,3.31697,4.19232e-38
535.9,205.534,536.5539,49.393,11.5425,156.141,167.684,156.141,8.12636,3.41614,7.06417e-37
535.8,131.804,536.4539,-24.3372,14.1742,156.141,170.315,156.141,10.6543,3.51983,1.13975e-35
535.7,251.11,536.354,94.9691,17.5054,156.141,173.646,156.141,13.877,3.62832,1.76075e-34
535.6,215.483,536.2539,59.3423,21.6978,156.141,177.839,156.141,17.9559,3.7419,2.60451e-33
535.5,170.792,536.1539,14.6513,26.942,156.141,183.083,156.141,23.081,3.86091,3.68889e-32
535.4,119.024,536.0539,-37.1168,33.46,156.141,189.601,156.141,29.4743,3.9857,5.0027e-31
535.3,182.265,535.9539,26.1242,41.5081,156.141,197.649,156.141,37.3914,4.11663,6.49613e-30
535.2,379.715,535.854,223.574,51.3778,156.141,207.519,156.141,47.1237,4.25414,8.07691e-29
535.1,230.203,535.7539,74.0616,63.3979,156.141,219.539,156.141,58.9992,4.39866,9.6156e-28
535.0,390.699,535.6539,234.558,77.9331,156.141,234.074,156.141,73.3825,4.55067,1.09609e-26
534.9,229.195,535.5539,73.0541,95.3837,156.141,251.525,156.141,90.673,4.71072,1.19635e-25
534.8,169.514,535.4539,13.3731,116.181,156.141,272.323,156.141,111.302,4.87937,1.25029e-24
534.7,136.759,535.354,-19.382,140.785,156.141,296.926,156.141,135.727,5.05726,1.25113e-23
534.6,244.064,535.2539,87.9227,169.671,156.141,325.813,156.141,164.426,5.24506,1.19877e-22
534.5,306.504,535.1539,150.363,203.33,156.141,359.471,156.141,197.886,5.44354,1.09979e-21
534.4,222.928,535.0539,66.7866,242.244,156.141,398.385,156.141,236.591,5.65352,9.66105e-21
534.3,385.414,534.9539,229.273,286.885,156.141,443.026,156.141,281.009,5.8759,8.12603e-20
534.2,450.083,534.854,293.942,337.687,156.141,493.828,156.141,331.575,6.11169,6.54445e-19
534.1,471.82,534.7539,315.679,395.034,156.141,551.175,156.141,388.672,6.36198,5.04671e-18
534.0,634.705,534.6539,478.564,459.237,156.141,615.379,156.141,452.609,6.628,3.72636e-17
533.9,740.806,534.5539,584.664,530.516,156.141,686.657,156.141,523.605,6.91108,2.63451e-16
533.8,745.995,534.4539,589.854,608.973,156.141,765.114,156.141,601.76,7.21273,1.78343e-15
533.7,900.312,534.354,744.171,694.575,156.141,850.716,156.141,687.04,7.53461,1.15599e-14
533.6,902.754,534.2539,746.613,787.135,156.141,943.276,156.141,779.256,7.87857,7.17449e-14
533.5,945.232,534.1539,789.091,886.295,156.141,1042.44,156.141,878.048,8.24667,4.26353e-13
533.4,1161.92,534.0539,1005.78,991.51,156.141,1147.65,156.141,982.868,8.64125,2.42598e-12
533.3,1215.82,533.9539,1059.68,1102.04,156.141,1258.19,156.141,1092.98,9.06491,1.32174e-11
533.2,1519.01,533.854,1362.87,1216.97,156.141,1373.11,156.141,1207.45,9.52058,6.89517e-11
533.1,1714.59,533.7539,1558.45,1335.16,156.141,1491.3,156.141,1325.15,10.0116,3.44417e-10
533.0,1578.23,533.6539,1422.09,1455.31,156.141,1611.45,156.141,1444.77,10.5417,1.64727e-09
532.9,1743.89,533.5539,1587.74,1575.97,156.141,1732.11,156.141,1564.85,11.1151,7.5437e-09
532.8,2012.89,533.4539,1856.75,1695.52,156.141,1851.66,156.141,1683.79,11.7368,3.30785e-08
532.7,1923.04,533.354,1766.9,1812.28,156.141,1968.42,156.141,1799.87,12.4123,1.38882e-07
532.6,2211.35,533.2539,2055.21,1924.47,156.141,2080.61,156.141,1911.32,13.1481,5.58327e-07
532.5,2311.96,533.1539,2155.82,2030.3,156.141,2186.44,156.141,2016.35,13.9515,2.14917e-06
532.4,2181.56,533.0539,2025.42,2128.01,156.141,2284.15,156.141,2113.18,14.8312,7.92124e-06
532.3,2320.16,532.9539,2164.02,2215.92,156.141,2372.06,156.141,2200.13,15.7971,2.79548e-05
532.2,2452.98,532.854,2296.84,2292.47,156.141,2448.61,156.141,2275.61,16.8609,9.44625e-05
532.1,2419.88,532.7539,2263.73,2356.27,156.141,2512.41,156.141,2338.23,18.0365,0.000305635
532.0,2228.59,532.6539,2072.45,2406.15,156.141,2562.29,156.141,2386.81,19.34,0.000946864
531.9,2517.39,532.5539,2361.25,2441.19,156.141,2597.33,156.141,2420.39,20.791,0.00280874
531.8,2664.54,532.4539,2508.39,2460.76,156.141,2616.9,156.141,2438.34,22.4126,0.0079777
531.7,2470.64,532.354,2314.5,2464.55,156.141,2620.69,156.141,2440.29,24.2327,0.0216962
531.6,2676.76,532.2539,2520.62,2452.56,156.141,2608.7,156.141,2426.21,26.2856,0.0564975
531.5,2617,532.1539,2460.85,2425.13,156.141,2581.27,156.141,2396.38,28.6129,0.140869
531.4,2496.09,532.0539,2339.94,2382.97,156.141,2539.12,156.141,2351.37,31.2663,0.336312
531.3,2631.19,531.9539,2475.05,2327.14,156.141,2483.28,156.141,2292.06,34.3101,0.768793
531.2,2602.37,531.854,2446.23,2259.09,156.141,2415.23,156.141,2219.58,37.8259,1.68274
531.1,2435.4,531.7539,2279.26,2180.73,156.141,2336.87,156.141,2135.28,41.9177,3.52668
531.0,2189.1,531.6539,2032.96,2094.5,156.141,2250.64,156.141,2040.7,46.7203,7.07708
530.9,2287.68,531.5539,2131.54,2003.51,156.141,2159.65,156.141,1937.5,52.411,13.5983
530.8,2032.14,531.4539,1876,1911.69,156.141,2067.83,156.141,1827.45,59.2273,25.018
530.7,1881.27,531.354,1725.13,1823.89,156.141,1980.04,156.141,1712.33,67.4933,44.072
530.6,1863.26,531.2539,1707.12,1745.93,156.141,1902.07,156.141,1593.93,77.662,74.3383
530.5,1860.24,531.1539,1704.1,1684.42,156.141,1840.56,156.141,1473.97,90.3842,120.061
530.4,1819.19,531.0539,1663.05,1646.39,156.141,1802.53,156.141,1354.1,106.626,185.667
530.3,1721.02,530.9539,1564.88,1638.61,156.141,1794.75,156.141,1235.8,127.882,274.92
530.2,1722.77,530.854,1566.63,1666.8,156.141,1822.94,156.141,1120.44,156.577,389.779
530.1,1885.66,530.7539,1729.52,1735.18,156.141,1891.32,156.141,1009.18,196.866,529.141
530.0,2113.86,530.6539,1957.72,1847,156.141,2003.14,156.141,902.995,256.205,687.803
529.9,2177.29,530.5539,2021.15,2006.88,156.141,2163.02,156.141,802.681,348.154,856.046
529.8,2364.92,530.4539,2208.78,2225.22,156.141,2381.36,156.141,708.826,496.225,1020.17
529.7,2666.95,530.354,2510.81,2521.83,156.141,2677.97,156.141,621.837,735.909,1164.09
529.6,3129.59,530.2539,2973.45,2921.05,156.141,3077.19,156.141,541.941,1107.25,1271.86
529.5,3478.87,530.1539,3322.73,3428.46,156.141,3584.6,156.141,469.21,1628.68,1330.56
529.4,4117.95,530.0539,3961.81,3992.02,156.141,4148.16,156.141,403.573,2255.63,1332.82
529.3,4758.05,529.9539,4601.91,4477.91,156.141,4634.05,156.141,344.839,2854.73,1278.34
529.2,4830.72,529.854,4674.58,4704.64,156.141,4860.78,156.141,292.718,3237.94,1173.99
529.1,4649.3,529.7539,4493.16,4539.26,156.141,4695.4,156.141,246.844,3260.09,1032.33
529.0,4273.44,529.6539,4117.3,3988.24,156.141,4144.38,156.141,206.793,2912.25,869.195
528.9,3192.41,529.5539,3036.27,3200.72,156.141,3356.86,156.141,172.102,2327.88,700.736
528.8,2508.97,529.4539,2352.83,2379.02,156.141,2535.16,156.141,142.291,1695.81,540.92
528.7,1846.46,529.354,1690.32,1675.34,156.141,1831.49,156.141,116.872,1158.67,399.808
528.6,1458.1,529.2539,1301.96,1148.85,156.141,1304.99,156.141,95.3628,770.536,282.95
528.5,1046.1,529.1539,889.963,786.955,156.141,943.095,156.141,77.3016,517.914,191.739
528.4,647.458,529.0539,491.318,548.149,156.141,704.289,156.141,62.2498,361.491,124.408
528.3,579.44,528.9539,423.299,391.7,156.141,547.841,156.141,49.7996,264.61,77.2912
528.2,479.287,528.854,323.146,287.977,156.141,444.117,156.141,39.578,202.421,45.9781
528.1,197.828,528.7539,41.6877,217.876,156.141,374.017,156.141,31.2479,160.439,26.1886
528.0,245.183,528.6539,89.0421,169.48,156.141,325.621,156.141,24.5092,130.688,14.2828
527.9,256.584,528.5539,100.443,135.294,156.141,291.435,156.141,19.0974,108.738,7.45857
527.8,293.024,528.4539,136.883,110.53,156.141,266.671,156.141,14.7829,92.018,3.72939
527.7,220.434,528.354,64.2938,92.1081,156.141,248.249,156.141,11.368,78.9546,1.7855
527.6,171.748,528.2539,15.6076,78.0381,156.141,234.179,156.141,8.6846,68.535,0.81851
527.5,206.05,528.1539,49.9098,67.0303,156.141,223.171,156.141,6.59104,60.08,0.359276
527.4,258.422,528.0539,102.281,58.2387,156.141,214.379,156.141,4.96932,53.1184,0.150998
527.3,370.925,527.9539,214.785,51.0967,156.141,207.237,156.141,3.72203,47.3139,0.0607654
527.2,204.385,527.854,48.2449,45.2139,156.141,201.354,156.141,2.76951,42.421,0.0234143
527.1,79.6127,527.7539,-76.5279,40.3123,156.141,196.453,156.141,2.04722,38.2564,0.00863867
527.0,161.806,527.6539,5.66522,36.1878,156.141,192.328,156.141,1.50337,34.6814,0.00305178
526.9,81.0,527.5539,-75.1406,32.6865,156.141,188.827,156.141,1.09675,31.5887,0.00103228
526.8,0.0,527.4539,-156.141,29.69,156.141,185.831,156.141,0.794851,28.8948,0.000334338
526.7,64.0,527.354,-92.1406,27.1059,156.141,183.246,156.141,0.572276,26.5335,0.000103684
526.6,190.0,527.2539,33.8594,24.8613,156.141,181.002,156.141,0.409321,24.452,3.0788e-05
526.5,268.0,527.1539,111.859,22.8982,156.141,179.039,156.141,0.290846,22.6073,8.75365e-06
526.4,205.0,527.0539,48.8594,21.1702,156.141,177.311,156.141,0.205305,20.9649,2.38307e-06
526.3,172.0,526.9539,15.8594,19.6399,156.141,175.78,156.141,0.143972,19.4959,6.21193e-07
526.2,29.0,526.854,-127.141,18.2771,156.141,174.418,156.141,0.100298,18.1768,1.55044e-07
526.1,238.0,526.7539,81.8594,17.0571,156.141,173.198,156.141,0.0694145,16.9876,3.70532e-08
526.0,98.0,526.6539,-58.1406,15.9596,156.141,172.1,156.141,0.047725,15.9119,8.47883e-09
525.9,148.0,526.5539,-8.14056,14.9682,156.141,171.109,156.141,0.0325972,14.9356,1.85775e-09
525.8,181.0,526.4539,24.8594,14.0689,156.141,170.209,156.141,0.0221185,14.0467,3.89742e-10
525.7,20.0,526.354,-136.141,13.2501,156.141,169.391,156.141,0.0149097,13.2352,7.82905e-11
525.6,169.0,526.2539,12.8594,12.5022,156.141,168.643,156.141,0.0099844,12.4922,1.50585e-11
525.5,251.0,526.1539,94.8594,11.8168,156.141,167.957,156.141,0.00664224,11.8102,2.77328e-12
525.4,336.0,526.0539,179.859,11.1871,156.141,167.328,156.141,0.00438982,11.1827,4.89042e-13
525.3,355.0,525.9539,198.859,10.607,156.141,166.748,156.141,0.00288216,10.6041,8.25733e-14
525.2,319.0,525.854,162.859,10.0712,156.141,166.212,156.141,0.00187988,10.0693,1.33498e-14
525.1,129.0,525.7539,-27.1406,9.57534,156.141,165.716,156.141,0.00121809,9.57413,2.06656e-15
525.0,193.0,525.6539,36.8594,9.11543,156.141,165.256,156.141,0.000784097,9.11464,3.0631e-16