File: XPS/LG4X-result/UT-1-C1s.csv
#No of rows lightened (2D detector)1(if not using 2D detector, value is 1 and can be ignored!)
raw_x,raw_y,corrected x,data-bg,sum_components,bg,sum_fit,C=C,pi-pi*,pi-pi*2,C-C,C-O,C=O
295.0,721.0,295.6303,0.0,-675.232,721.0,45.7685,9.99187,15.3319,4.20873,1.45415,11.625,3.15675
294.9,762.0,295.53,41.0577,-670.553,720.942,50.3895,10.174,16.1845,7.43285,1.48217,11.8702,3.2458
294.8,759.0,295.43,38.1692,-664.126,720.831,56.7052,10.3611,17.1169,12.2543,1.51101,12.1232,3.33871
294.7,798.0,295.3303,77.3316,-655.754,720.668,64.9145,10.5535,18.1399,18.8604,1.5407,12.3843,3.43568
294.6,820.0,295.23,99.5804,-645.542,720.42,74.878,10.7513,19.2663,27.0982,1.57127,12.654,3.53698
294.5,840.0,295.1303,119.889,-634.121,720.111,85.9896,10.9546,20.5105,36.3463,1.60277,12.9325,3.64286
294.4,792.0,295.03,72.1591,-622.668,719.841,97.1729,11.1638,21.8898,45.5102,1.63521,13.2203,3.7536
294.3,825.0,294.93,105.409,-612.536,719.591,107.056,11.3791,23.4238,53.1969,1.66866,13.5177,3.86951
294.2,810.0,294.8303,90.6845,-605.011,719.315,114.304,11.6006,25.1356,58.0487,1.70314,13.8252,3.99092
294.1,842.0,294.73,122.985,-601.002,719.015,118.013,11.8287,27.0516,59.1327,1.7387,14.1434,4.11818
294.0,847.0,294.6303,128.338,-600.663,718.662,117.999,12.0636,29.2022,56.2331,1.77538,14.4726,4.25168
293.9,819.0,294.53,100.66,-603.472,718.34,114.867,12.3056,31.6221,49.9212,1.81324,14.8133,4.39184
293.8,848.0,294.43,129.985,-608.18,718.015,109.835,12.5549,34.3506,41.3721,1.85232,15.1662,4.53912
293.7,833.0,294.3303,115.33,-613.3,717.67,104.37,12.8118,37.4318,32.008,1.89268,15.5318,4.694
293.6,800.0,294.23,82.6081,-617.581,717.392,99.8111,13.0767,40.9149,23.1174,1.93438,15.9107,4.85702
293.5,831.0,294.1303,113.884,-620.015,717.116,97.1001,13.35,44.8538,15.5864,1.97746,16.3036,5.02878
293.4,795.0,294.03,78.1545,-620.153,716.845,96.6926,13.6319,49.3073,9.81036,2.02201,16.7111,5.20991
293.3,797.0,293.93,80.3774,-617.994,716.623,98.6285,13.9228,54.3381,5.76437,2.06807,17.1341,5.40113
293.2,808.0,293.8303,91.6193,-613.691,716.381,102.689,14.2231,60.0121,3.1619,2.11573,17.5732,5.60319
293.1,852.0,293.73,135.939,-607.5,716.061,108.561,14.5333,66.3973,1.61909,2.16505,18.0293,5.81694
293.0,846.0,293.6303,130.314,-599.734,715.686,115.952,14.8537,73.5619,0.773973,2.21612,18.5033,6.04332
292.9,846.0,293.53,130.681,-590.668,715.319,124.651,15.1848,81.5722,0.345389,2.26902,18.9962,6.28336
292.8,861.0,293.43,146.07,-580.398,714.93,134.532,15.5272,90.4901,0.143886,2.32384,19.5089,6.53819
292.7,872.0,293.3303,157.497,-568.964,714.503,145.539,15.8812,100.37,0.0559578,2.38066,20.0425,6.80907
292.6,865.0,293.23,150.931,-556.411,714.069,157.659,16.2475,111.256,0.0203156,2.4396,20.5982,7.0974
292.5,870.0,293.1303,156.363,-542.745,713.637,170.892,16.6267,123.176,0.00688538,2.50075,21.1771,7.40473
292.4,880.0,293.03,166.817,-527.943,713.183,185.24,17.0192,136.141,0.00217849,2.56423,21.7807,7.7328
292.3,895.0,292.93,182.308,-512.002,712.692,200.69,17.4259,150.14,0.000643445,2.63016,22.4103,8.08355
292.2,907.0,292.8303,194.839,-494.955,712.161,217.207,17.8473,165.134,0.000177417,2.69867,23.0673,8.45915
292.1,942.0,292.73,230.437,-476.835,711.563,234.728,18.2841,181.058,4.56678e-05,2.76989,23.7535,8.86206
292.0,977.0,292.6303,266.135,-457.705,710.865,253.16,18.7373,197.813,1.09737e-05,2.84396,24.4706,9.29504
291.9,988.0,292.53,277.9,-437.724,710.1,272.376,19.2074,215.266,2.46164e-06,2.92105,25.2204,9.76122
291.8,1001.0,292.43,291.701,-417.081,709.299,292.219,19.6956,233.253,5.15497e-07,3.00131,26.0049,10.2642
291.7,996.0,292.3303,287.515,-395.99,708.485,312.495,20.2025,251.573,1.00776e-07,3.08493,26.8263,10.8079
291.6,1034.0,292.23,326.379,-374.639,707.621,332.983,20.7293,269.997,1.83914e-08,3.17209,27.6868,11.3971
291.5,1083.0,292.1303,376.367,-353.198,706.633,353.435,21.277,288.269,3.1333e-09,3.263,28.5892,12.037
291.4,1109.0,292.03,403.464,-331.953,705.536,373.583,21.8467,306.109,4.98332e-10,3.35788,29.536,12.7338
291.3,1107.0,291.93,402.597,-311.259,704.403,393.144,22.4397,323.223,7.39885e-11,3.45695,30.5301,13.4946
291.2,1106.0,291.8303,402.73,-291.439,703.27,411.831,23.057,339.311,1.02551e-11,3.56048,31.5749,14.3276
291.1,1104.0,291.73,401.861,-272.78,702.139,429.359,23.7003,354.074,1.32691e-12,3.66873,32.6736,15.2423
291.0,1201.0,291.6303,500.13,-255.412,700.87,445.458,24.3708,367.225,1.60278e-13,3.78199,33.8302,16.2499
290.9,1128.0,291.53,428.435,-239.683,699.565,459.881,25.0703,378.499,1.80732e-14,3.90057,35.0486,17.3635
290.8,1200.0,291.43,501.743,-225.841,698.257,472.415,25.8003,387.659,1.90251e-15,4.02483,36.3333,18.5983
290.7,1198.0,291.3303,501.154,-213.957,696.846,482.889,26.5626,394.51,1.86958e-16,4.15512,37.6891,19.9723
290.6,1230.0,291.23,534.61,-204.208,695.39,491.181,27.3593,398.902,1.71511e-17,4.29184,39.1214,21.5065
290.5,1172.0,291.1303,478.034,-196.737,693.966,497.229,28.1924,400.74,1.46882e-18,4.43542,40.6359,23.2256
290.4,1193.0,291.03,500.41,-191.562,692.59,501.028,29.0642,399.981,1.17429e-19,4.58633,42.2389,25.1581
290.3,1178.0,290.93,486.799,-188.562,691.201,502.639,29.9771,396.642,8.76417e-21,4.74508,43.9374,27.3372
290.2,1214.0,290.8303,524.22,-187.595,689.78,502.185,30.9337,390.799,6.10625e-22,4.91221,45.739,29.8012
290.1,1200.0,290.73,511.677,-188.474,688.323,499.849,31.9368,382.578,3.97162e-23,5.08834,47.652,32.5936
290.0,1090.0,290.6303,402.963,-191.167,687.037,495.87,32.9896,372.157,2.41151e-24,5.27411,49.6859,35.7631
289.9,1135.0,290.53,449.162,-195.301,685.838,490.537,34.0954,359.757,1.36691e-25,5.47024,51.8506,39.364
289.8,1159.0,290.43,474.46,-200.362,684.54,484.178,35.2578,345.63,7.23301e-27,5.67753,54.1576,43.4547
289.7,1127.0,290.3303,443.752,-206.097,683.248,477.151,36.4806,330.057,3.57296e-28,5.89683,56.6194,48.0969
289.6,1166.0,290.23,484.056,-212.109,681.944,469.834,37.7683,313.333,1.64765e-29,6.12908,59.2498,53.3536
289.5,1156.0,290.1303,475.406,-217.984,680.594,462.61,39.1255,295.759,7.09302e-31,6.37534,62.0642,59.286
289.4,1137.0,290.03,457.718,-223.426,679.282,455.856,40.5571,277.632,2.85054e-32,6.63674,65.08,65.9499
289.3,1141.0,289.93,463.013,-228.058,677.987,449.93,42.069,259.239,1.06943e-33,6.91456,68.3163,73.3909
289.2,1122.0,289.8303,445.29,-231.553,676.71,445.157,43.667,240.846,3.74545e-35,7.2102,71.7946,81.639
289.1,1104.0,289.73,428.519,-233.662,675.481,441.819,45.3579,222.695,1.22458e-36,7.52521,75.539,90.7022
289.0,1131.0,289.6303,456.764,-234.091,674.236,440.145,47.1491,204.997,3.73764e-38,7.86134,79.5768,100.56
288.9,1134.0,289.53,461.054,-232.645,672.946,440.301,49.0487,187.934,1.06497e-39,8.22051,83.9384,111.159
288.8,1134.0,289.43,462.353,-229.264,671.647,442.383,51.0655,171.651,2.83274e-41,8.60487,88.6584,122.404
288.7,1142.0,289.3303,471.666,-223.914,670.334,446.42,53.2094,156.26,7.03402e-43,9.01685,93.7759,134.158
288.6,1152.0,289.23,483.009,-216.627,668.991,452.364,55.4913,141.84,1.63054e-44,9.45914,99.3352,146.239
288.5,1161.0,289.1303,493.382,-207.51,667.618,460.108,57.9234,128.442,3.52847e-46,9.9348,105.387,158.421
288.4,1189.0,289.03,522.811,-196.706,666.189,469.483,60.519,116.088,7.12805e-48,10.4473,111.988,170.441
288.3,1154.0,288.93,489.234,-184.488,664.766,480.278,63.2931,104.774,1.34426e-49,11.0005,119.205,182.005
288.2,1166.0,288.8303,502.629,-171.116,663.371,492.255,66.2625,94.4805,2.36661e-51,11.5988,127.112,192.801
288.1,1156.0,288.73,494.031,-156.798,661.969,505.172,69.4458,85.1685,3.88954e-53,12.2473,135.797,202.513
288.0,1160.0,288.6303,499.428,-141.774,660.572,518.799,72.8639,76.7878,5.96759e-55,12.9518,145.359,210.836
287.9,1171.0,288.53,511.85,-126.202,659.15,532.948,76.5404,69.2793,8.54728e-57,13.7189,155.913,217.496
287.8,1128.0,288.43,470.231,-110.276,657.769,547.493,80.5017,62.5781,1.14284e-58,14.5563,167.592,222.265
287.7,1160.0,288.3303,503.6,-94.0087,656.4,562.391,84.7776,56.6165,1.42651e-60,15.4728,180.55,224.974
287.6,1219.0,288.23,564.102,-77.2008,654.898,577.697,89.4019,51.3263,1.66222e-62,16.4786,194.964,225.526
287.5,1232.0,288.1303,578.709,-59.7081,653.291,593.583,94.4129,46.6405,1.80815e-64,17.5859,211.042,223.901
287.4,1284.0,288.03,632.412,-41.2485,651.588,610.339,99.8539,42.4949,1.83615e-66,18.8088,229.024,220.158
287.3,1299.0,287.93,649.214,-21.4019,649.786,628.384,105.775,38.829,1.74065e-68,20.1638,249.187,214.429
287.2,1290.0,287.8303,642.03,0.286628,647.97,648.256,112.231,35.5869,1.54044e-70,21.6709,271.852,206.916
287.1,1300.0,287.73,653.853,24.4685,646.147,670.616,119.289,32.7173,1.27264e-72,23.3535,297.386,197.87
287.0,1316.0,287.6303,671.717,51.9457,644.283,696.229,127.022,30.174,9.81508e-75,25.2401,326.209,187.584
286.9,1405.0,287.53,762.734,83.6912,642.266,725.957,135.517,27.9159,7.06664e-77,27.3651,358.791,176.369
286.8,1417.0,287.43,776.899,120.639,640.101,760.74,144.872,25.9062,4.74964e-79,29.7704,395.65,164.541
286.7,1459.0,287.3303,821.146,163.714,637.854,801.568,155.203,24.1129,2.98014e-81,32.5077,437.338,152.406
286.6,1498.0,287.23,862.514,213.962,635.486,849.448,166.646,22.5079,1.74559e-83,35.641,484.41,140.243
286.5,1571.0,287.1303,938.046,272.394,632.954,905.348,179.36,21.0668,9.54502e-86,39.2506,537.373,128.298
286.4,1594.0,287.03,963.72,339.832,630.28,970.112,193.531,19.7686,4.87237e-88,43.4383,596.598,116.776
286.3,1712.0,286.93,1084.6,416.928,627.399,1044.33,209.384,18.5952,2.32184e-90,48.3344,662.178,105.836
286.2,1774.0,286.8303,1149.74,503.896,624.257,1128.15,227.187,17.5308,1.03289e-92,54.1087,733.733,95.5936
286.1,1844.0,286.73,1223.08,600.157,620.92,1221.08,247.264,16.5621,4.28947e-95,60.9843,810.143,86.1236
286.0,1981.0,286.6303,1363.72,704.387,617.283,1321.67,270.014,15.6775,1.66296e-97,69.2606,889.256,77.4625
285.9,2027.0,286.53,1413.62,814.009,613.377,1427.39,295.927,14.8672,6.01854e-100,79.3458,967.631,69.6156
285.8,2131.0,286.43,1521.75,925.341,609.249,1534.59,325.62,14.1228,2.03342e-102,91.808,1040.48,62.5633
285.7,2218.0,286.3303,1613.16,1034.16,604.841,1639,359.876,13.4368,6.41348e-105,107.457,1101.96,56.2673
285.6,2301.0,286.23,1700.82,1136.51,600.18,1736.69,399.707,12.8029,1.88838e-107,127.477,1146.03,50.6761
285.5,2386.0,286.1303,1790.73,1230.43,595.27,1825.7,446.443,12.2157,5.19054e-110,153.652,1167.66,45.7308
285.4,2440.0,286.03,1849.85,1317.68,590.151,1907.83,501.87,11.6705,1.33188e-112,188.757,1164.17,41.3689
285.3,2529.0,285.93,1944.18,1405.57,584.815,1990.39,568.443,11.163,3.19041e-115,237.25,1136,37.5277
285.2,2742.0,285.8303,2162.96,1508.51,579.039,2087.55,649.632,10.6897,7.1344e-118,306.48,1086.6,34.147
285.1,2887.0,285.73,2314.26,1649.08,572.743,2221.82,750.499,10.2475,1.48935e-120,408.518,1021.39,31.1702
285.0,3093.0,285.6303,2527.06,1859.55,565.935,2425.49,878.729,9.83343,2.90245e-123,561.902,946.48,28.5458
284.9,3382.0,285.53,2823.59,2181,558.411,2739.41,1046.59,9.44511,5.28035e-126,789.661,867.482,26.2276
284.8,3682.0,285.43,3131.96,2652.86,550.036,3202.9,1274.99,9.08033,8.96786e-129,1105.83,788.825,24.1748
284.7,4259.0,285.3303,3718.6,3292.8,540.402,3833.2,1602.63,8.73714,1.42182e-131,1485.9,713.581,22.3516
284.6,5026.0,285.23,4497.15,4092.18,528.849,4621.02,2107.77,8.4138,2.1044e-134,1840.52,643.588,20.7272
284.5,6002.0,285.1303,5487.19,5085.82,514.808,5600.63,2955.86,8.10873,2.90764e-137,2037.65,579.735,19.2749
284.4,7615.0,285.03,7117.92,6512.23,497.082,7009.31,4474.6,7.82053,3.75045e-140,1986.67,522.25,17.9721
284.3,10084.0,284.93,9610.44,8908.59,473.558,9382.15,7174.75,7.54793,4.516e-143,1712.1,470.946,16.7992
284.2,13816.0,284.8303,13374.8,12819.8,441.234,13261.1,11479.9,7.28979,5.07638e-146,1332.71,425.403,15.7397
284.1,18764.0,284.73,18367.4,17986.5,396.597,18383.1,17005.1,7.04507,5.32701e-149,970.993,385.094,14.7795
284.0,23025.0,284.6303,22686.1,22667.5,338.865,23006.3,21946.5,6.81282,5.21844e-152,689.669,349.461,13.9065
283.9,24820.0,284.53,24547.6,24345.7,272.442,24618.2,23786.6,6.59219,4.7723e-155,493.887,317.958,13.1103
283.8,22477.0,284.43,22270.4,21790.1,206.604,21996.7,21324.5,6.38238,4.07421e-158,363.367,290.081,12.3821
283.7,16787.0,284.3303,16635.1,16274.8,151.892,16426.7,15867.3,6.18269,3.24704e-161,276.087,265.373,11.7142
283.6,10456.0,284.23,10342,10389.2,113.955,10503.2,10026.5,5.99245,2.4158e-164,216.159,243.428,11.1
283.5,5895.0,284.1303,5803.75,5955.89,91.2503,6047.14,5633.28,5.81106,1.67789e-167,173.623,223.893,10.5339
283.4,3322.0,284.03,3243.47,3299.16,78.5275,3377.68,3013.12,5.63798,1.08792e-170,142.455,206.458,10.0109
283.3,2016.0,283.93,1944.77,1903.94,71.2315,1975.17,1650.34,5.47268,6.585e-174,118.97,190.858,9.52657
283.2,1413.0,283.8303,1346.4,1193.36,66.6033,1259.96,967.862,5.31469,3.72087e-177,100.846,176.862,9.0772
283.1,1069.0,283.73,1005.7,811.221,63.2956,874.517,609.853,5.16359,1.96274e-180,86.569,164.272,8.65945
283.0,794.0,283.6303,733.15,586.104,60.8504,646.955,405.626,5.01897,9.66519e-184,75.1243,152.916,8.27035
282.9,595.0,283.53,535.934,441.945,59.0657,501.011,279.768,4.88046,4.4431e-187,65.8093,142.646,7.90731
282.8,470.0,283.43,412.268,343.759,57.7323,401.491,197.714,4.7477,1.90674e-190,58.1267,133.335,7.56803
282.7,369.0,283.3303,312.287,273.838,56.7134,330.552,142.093,4.62039,7.6388e-194,51.7159,124.872,7.25043
282.6,324.0,283.23,268.103,222.362,55.8972,278.259,103.335,4.49822,2.85686e-197,46.3109,117.162,6.95269
282.5,279.0,283.1303,223.795,183.462,55.2054,238.667,75.7806,4.38091,9.97425e-201,41.7117,110.121,6.67317
282.4,244.0,283.03,189.376,153.394,54.6244,208.018,55.8976,4.2682,3.25088e-204,37.7656,103.676,6.41038
282.3,221.0,282.93,166.877,129.71,54.1234,183.833,41.3908,4.15986,9.89124e-208,34.3545,97.7652,6.16301
282.2,213.0,282.8303,159.335,110.759,53.6647,164.423,30.7202,4.05565,2.8095e-211,31.3858,92.3318,5.92985
282.1,178.0,282.73,124.735,95.3389,53.2652,148.604,22.8253,3.95537,7.44967e-215,28.7862,87.3274,5.70983
282.0,174.0,282.6303,121.08,82.6081,52.9195,135.528,16.9607,3.85881,1.84405e-218,26.4969,82.7092,5.50196
281.9,169.0,282.53,116.414,71.9888,52.5856,124.574,12.5932,3.7658,4.26127e-222,24.4704,78.4396,5.30536
281.8,161.0,282.43,108.731,63.016,52.269,115.285,9.33661,3.67616,9.19249e-226,22.6679,74.4851,5.11922
281.7,144.0,282.3303,92.0133,55.3273,51.9867,107.314,6.90777,3.58972,1.85121e-229,21.0575,70.8161,4.9428
281.6,129.0,282.23,77.2514,48.65,51.7486,100.399,5.09749,3.50634,3.48024e-233,19.613,67.4064,4.77543
281.5,126.0,282.1303,74.4647,42.802,51.5353,94.3373,3.75016,3.42586,6.10787e-237,18.3122,64.2326,4.6165
281.4,135.0,282.03,83.6871,37.6607,51.3129,88.9736,2.74944,3.34816,1.00069e-240,17.1367,61.2738,4.46544
281.3,113.0,281.93,61.8919,33.0772,51.1081,84.1853,2.00812,3.2731,1.53052e-244,16.0709,58.5114,4.32174
281.2,118.0,281.8303,67.0732,28.9497,50.9268,79.8765,1.46068,3.20057,2.18528e-248,15.1016,55.9287,4.18493
281.1,117.0,281.73,66.2607,25.2317,50.7393,75.971,1.05783,3.13045,2.91275e-252,14.2174,53.5107,4.05456
281.0,103.0,281.6303,52.4276,21.8356,50.5724,72.408,0.762547,3.06263,3.62435e-256,13.4087,51.2438,3.93024
280.9,100.0,281.53,49.5711,18.7099,50.4289,69.1388,0.547033,2.99702,4.21002e-260,12.6672,49.116,3.81159
280.8,106.0,281.43,55.7191,15.8431,50.2809,66.1239,0.390452,2.93352,4.56529e-264,11.9855,47.1163,3.69827
280.7,97.0,281.3303,46.8634,13.1946,50.1366,63.3312,0.277238,2.87203,4.62148e-268,11.3573,45.2346,3.58997
280.6,89.0,281.23,38.9841,10.7182,50.0159,60.7341,0.195792,2.81248,4.3674e-272,10.7774,43.4621,3.48639
280.5,82.0,281.1303,32.084,8.39476,49.916,58.3107,0.137508,2.75478,3.85295e-276,10.2407,41.7905,3.38725
280.4,82.0,281.03,32.1744,6.21716,49.8256,56.0428,0.0960273,2.69885,3.17316e-280,9.74319,40.2124,3.29232
280.3,81.0,280.93,31.2636,4.17834,49.7364,53.9147,0.0666713,2.64463,2.43961e-284,9.28107,38.721,3.20134
280.2,74.0,280.8303,24.3418,2.25529,49.6582,51.9135,0.0460161,2.59204,1.75097e-288,8.85107,37.3102,3.11411
280.1,81.0,280.73,31.4202,0.447905,49.5798,50.0277,0.0315691,2.54101,1.17318e-292,8.45028,35.9744,3.03041
280.0,82.0,280.6303,32.5101,-1.24233,49.4899,48.2475,0.0215254,2.49149,7.33803e-297,8.07612,34.7083,2.95007
279.9,62.0,280.53,12.5735,-2.862,49.4265,46.5645,0.014586,2.44342,4.28473e-301,7.72627,33.5073,2.87289
279.8,68.0,280.43,18.6174,-4.41166,49.3826,44.9709,0.0098216,2.39674,2.33559e-305,7.39868,32.367,2.79872
279.7,78.0,280.3303,28.6839,-5.85585,49.3161,43.4602,0.00657133,2.35139,1.1885e-309,7.09149,31.2834,2.72741
279.6,63.0,280.23,13.7436,-7.23005,49.2564,42.0264,0.00436836,2.30733,5.64586e-314,6.80305,30.2528,2.65879
279.5,64.0,280.1303,14.7837,-8.55235,49.2163,40.664,0.002885,2.26451,2.50368e-318,6.53186,29.272,2.59275
279.4,58.0,280.03,8.81688,-9.81499,49.1831,39.3681,0.00189281,2.22288,0.0,6.27657,28.3376,2.52915
279.3,72.0,279.93,22.8614,-11.0041,49.1386,38.1345,0.00123361,2.18239,0.0,6.03596,27.447,2.46787
279.2,61.0,279.8303,11.9103,-12.1307,49.0897,36.9589,0.000798609,2.14301,0.0,5.80893,26.5974,2.40881
279.1,65.0,279.73,15.9495,-13.2126,49.0505,35.8379,0.000513511,2.10469,0.0,5.59448,25.7863,2.35185
279.0,54.0,279.6303,4.97894,-14.2532,49.0211,34.7679,0.000327947,2.0674,0.0,5.39168,25.0116,2.29689
278.9,59.0,279.53,10.0,-15.2542,49.0,33.7458,0.000208006,2.0311,0.0,5.19972,24.2709,2.24385
278.8,49.0,279.43,0.0,-16.2311,49.0,32.7689,0.000131023,1.99575,0.0,5.01783,23.5625,2.19263
278.7,55.0,279.3303,6.0,-17.1656,49.0,31.8344,8.19593e-05,1.96132,0.0,4.84532,22.8845,2.14315
278.6,53.0,279.23,4.0,-18.0602,49.0,30.9398,5.09111e-05,1.92778,0.0,4.68156,22.2351,2.09534
278.5,55.0,279.1303,6.0,-18.917,49.0,30.083,3.14032e-05,1.89511,0.0,4.52597,21.6128,2.04911
278.4,53.0,279.03,4.0,-19.7382,49.0,29.2618,1.92338e-05,1.86326,0.0,4.378,21.0161,2.00441
278.3,55.0,278.93,6.0,-20.5258,49.0,28.4742,1.1697e-05,1.83221,0.0,4.23718,20.4437,1.96115
278.2,61.0,278.8303,12.0,-21.2816,49.0,27.7184,7.06291e-06,1.80194,0.0,4.10304,19.8941,1.91929
278.1,49.0,278.73,0.0,-22.0073,49.0,26.9927,4.23431e-06,1.77241,0.0,3.97517,19.3664,1.87876
278.0,54.0,278.6303,5.0,-22.7045,49.0,26.2955,2.52034e-06,1.74361,0.0,3.85319,18.8592,1.8395
277.9,61.0,278.53,12.0,-23.3747,49.0,25.6253,1.48936e-06,1.71551,0.0,3.73674,18.3716,1.80146
277.8,63.0,278.43,14.0,-24.0192,49.0,24.9808,8.7376e-07,1.68809,0.0,3.62549,17.9026,1.7646
277.7,64.0,278.3303,15.0,-24.6395,49.0,24.3605,5.08894e-07,1.66132,0.0,3.51914,17.4512,1.72886
277.6,64.0,278.23,15.0,-25.2366,49.0,23.7634,2.94235e-07,1.63519,0.0,3.4174,17.0166,1.6942
277.5,67.0,278.1303,18.0,-25.8118,49.0,23.1882,1.68882e-07,1.60967,0.0,3.32001,16.598,1.66057
277.4,57.0,278.03,8.0,-26.3661,49.0,22.6339,9.62241e-08,1.58476,0.0,3.22672,16.1945,1.62794
277.3,49.0,277.93,0.0,-26.9005,49.0,22.0995,5.44237e-08,1.56041,0.0,3.13731,15.8055,1.59627
277.2,55.0,277.8303,6.0,-27.416,49.0,21.584,3.05553e-08,1.53663,0.0,3.05157,15.4303,1.56551
277.1,50.0,277.73,1.0,-27.9134,49.0,21.0866,1.70283e-08,1.51339,0.0,2.9693,15.0683,1.53563