File: XPS/LG4X-result/UT-2-C1s.csv
#No of rows lightened (2D detector)1(if not using 2D detector, value is 1 and can be ignored!)
raw_x,raw_y,corrected x,data-bg,sum_components,bg,sum_fit,C=C,pi-pi*,pi-pi*2,C-C,C-O
295.0,721.0,295.6303,0.0,-669.016,721.0,51.9842,13.4176,30.4158,1.28975,0.828936,6.03205
294.9,762.0,295.53,41.0577,-665.638,720.942,55.3045,13.6621,31.809,2.82504,0.844902,6.1635
294.8,759.0,295.43,38.1692,-660.84,720.831,59.9904,13.9134,33.3025,5.61387,0.861334,6.29934
294.7,798.0,295.3303,77.3316,-654.151,720.668,66.5169,14.1716,34.9064,10.121,0.878249,6.43978
294.6,820.0,295.23,99.5804,-645.316,720.42,75.1032,14.4371,36.6315,16.5539,0.895668,6.58503
294.5,840.0,295.1303,119.889,-634.698,720.111,85.4135,14.7101,38.4902,24.5642,0.91361,6.73531
294.4,792.0,295.03,72.1591,-623.461,719.841,96.3795,14.991,40.4964,33.0692,0.932096,6.89087
294.3,825.0,294.93,105.409,-613.254,719.591,106.338,15.28,42.6653,40.3892,0.951149,7.05195
294.2,810.0,294.8303,90.6845,-605.781,719.315,113.535,15.5774,45.0141,44.7535,0.970793,7.21883
294.1,842.0,294.73,122.985,-602.197,719.015,116.818,15.8836,47.5619,44.9894,0.991051,7.39179
294.0,847.0,294.6303,128.338,-602.519,718.662,116.143,16.1989,50.3299,41.0312,1.01195,7.57114
293.9,819.0,294.53,100.66,-605.734,718.34,112.606,16.5236,53.3416,33.9499,1.03352,7.75719
293.8,848.0,294.43,129.985,-610.043,718.015,107.972,16.8583,56.6227,25.4849,1.05578,7.9503
293.7,833.0,294.3303,115.33,-613.68,717.67,103.991,17.2032,60.2018,17.356,1.07877,8.15082
293.6,800.0,294.23,82.6081,-615.538,717.392,101.854,17.5589,64.1096,10.7235,1.10252,8.35916
293.5,831.0,294.1303,113.884,-615.096,717.116,102.019,17.9256,68.3798,6.01094,1.12706,8.57572
293.4,795.0,294.03,78.1545,-612.483,716.845,104.362,18.304,73.0482,3.05682,1.15243,8.80097
293.3,797.0,293.93,80.3774,-608.15,716.623,108.472,18.6945,78.1532,1.41032,1.17867,9.03536
293.2,808.0,293.8303,91.6193,-602.472,716.381,113.908,19.0976,83.735,0.59032,1.20582,9.27943
293.1,852.0,293.73,135.939,-595.72,716.061,120.341,19.514,89.8354,0.22417,1.23391,9.53372
293.0,846.0,293.6303,130.314,-588.106,715.686,127.58,19.944,96.4971,0.0772303,1.26299,9.79881
292.9,846.0,293.53,130.681,-579.775,715.319,135.544,20.3885,103.763,0.024139,1.29312,10.0754
292.8,861.0,293.43,146.07,-570.713,714.93,144.217,20.848,111.674,0.00684495,1.32434,10.364
292.7,872.0,293.3303,157.497,-560.885,714.503,153.618,21.3232,120.271,0.00176093,1.3567,10.6656
292.6,865.0,293.23,150.931,-550.294,714.069,163.775,21.8148,129.589,0.000410994,1.39026,10.9808
292.5,870.0,293.1303,156.363,-538.92,713.637,174.718,22.3237,139.658,8.7026e-05,1.42508,11.3105
292.4,880.0,293.03,166.817,-526.713,713.183,186.47,22.8505,150.502,1.6718e-05,1.46122,11.6557
292.3,895.0,292.93,182.308,-513.644,712.692,199.048,23.3963,162.135,2.91365e-06,1.49876,12.0173
292.2,907.0,292.8303,194.839,-499.706,712.161,212.455,23.9618,174.559,4.60695e-07,1.53777,12.3965
292.1,942.0,292.73,230.437,-484.879,711.563,226.684,24.5481,187.764,6.6086e-08,1.57831,12.7944
292.0,977.0,292.6303,266.135,-469.155,710.865,241.711,25.1562,201.721,8.60056e-09,1.62048,13.2124
291.9,988.0,292.53,277.9,-452.608,710.1,257.492,25.7872,216.389,1.01546e-09,1.66437,13.6518
291.8,1001.0,292.43,291.701,-435.33,709.299,273.969,26.4422,231.702,1.08773e-10,1.71006,14.1143
291.7,996.0,292.3303,287.515,-417.425,708.485,291.06,27.1225,247.578,1.05706e-11,1.75766,14.6014
291.6,1034.0,292.23,326.379,-398.958,707.621,308.663,27.8294,263.911,9.31967e-13,1.80727,15.1151
291.5,1083.0,292.1303,376.367,-379.976,706.633,326.657,28.5643,280.576,7.45454e-14,1.85901,15.6574
291.4,1109.0,292.03,403.464,-360.639,705.536,344.897,29.3288,297.425,5.40955e-15,1.91301,16.2306
291.3,1107.0,291.93,402.597,-341.18,704.403,363.223,30.1243,314.292,3.56142e-16,1.96939,16.8372
291.2,1106.0,291.8303,402.73,-321.817,703.27,381.454,30.9527,330.993,2.12718e-17,2.0283,17.4799
291.1,1104.0,291.73,401.861,-302.741,702.139,399.398,31.8157,347.33,1.15268e-18,2.08989,18.1618
291.0,1201.0,291.6303,500.13,-284.019,700.87,416.852,32.7153,363.096,5.66671e-20,2.15433,18.8864
290.9,1128.0,291.53,428.435,-265.957,699.565,433.608,33.6537,378.075,2.52741e-21,2.2218,19.6576
290.8,1200.0,291.43,501.743,-248.799,698.257,449.457,34.633,392.052,1.02268e-22,2.29249,20.4797
290.7,1198.0,291.3303,501.154,-232.65,696.846,464.196,35.6558,404.816,3.75427e-24,2.3666,21.3575
290.6,1230.0,291.23,534.61,-217.756,695.39,477.633,36.7245,416.168,1.25035e-25,2.44437,22.2967
290.5,1172.0,291.1303,478.034,-204.373,693.966,489.593,37.842,425.921,3.77797e-27,2.52603,23.3035
290.4,1193.0,291.03,500.41,-192.668,692.59,499.922,39.0114,433.913,1.03563e-28,2.61185,24.3852
290.3,1178.0,290.93,486.799,-182.706,691.201,508.495,40.2358,440.007,2.57557e-30,2.70212,25.5501
290.2,1214.0,290.8303,524.22,-174.559,689.78,515.22,41.5188,444.097,5.81115e-32,2.79715,26.8078
290.1,1200.0,290.73,511.677,-168.283,688.323,520.04,42.8642,446.11,1.18952e-33,2.89728,28.1692
290.0,1090.0,290.6303,402.963,-164.1,687.037,522.936,44.2762,446.01,2.20903e-35,3.00289,29.6473
289.9,1135.0,290.53,449.162,-161.908,685.838,523.93,45.759,443.8,3.72179e-37,3.11437,31.2572
289.8,1159.0,290.43,474.46,-161.455,684.54,523.085,47.3177,439.518,5.68883e-39,3.23217,33.0164
289.7,1127.0,290.3303,443.752,-162.748,683.248,520.501,48.9575,433.241,7.88888e-41,3.35678,34.9456
289.6,1166.0,290.23,484.056,-165.625,681.944,516.319,50.684,425.077,9.92494e-43,3.48874,37.0692
289.5,1156.0,290.1303,475.406,-169.88,680.594,510.714,52.5036,415.166,1.13282e-44,3.62863,39.4158
289.4,1137.0,290.03,457.718,-175.389,679.282,503.893,54.423,403.674,1.17305e-46,3.7771,42.0194
289.3,1141.0,289.93,463.013,-181.897,677.987,496.091,56.4496,390.786,1.10202e-48,3.93487,44.9197
289.2,1122.0,289.8303,445.29,-189.146,676.71,487.564,58.5917,376.706,9.39258e-51,4.10273,48.1637
289.1,1104.0,289.73,428.519,-196.891,675.481,478.59,60.8582,361.644,7.26274e-53,4.28156,51.8065
289.0,1131.0,289.6303,456.764,-204.777,674.236,469.459,63.2588,345.816,5.09492e-55,4.47233,55.9124
288.9,1134.0,289.53,461.054,-212.473,672.946,460.472,65.8045,329.435,3.24261e-57,4.67613,60.5564
288.8,1134.0,289.43,462.353,-219.71,671.647,451.937,68.5071,312.71,1.87229e-59,4.89418,65.8252
288.7,1142.0,289.3303,471.666,-226.17,670.334,444.164,71.3798,295.838,9.80778e-62,5.12784,71.8184
288.6,1152.0,289.23,483.009,-231.526,668.991,437.465,74.4372,278.999,4.66111e-64,5.37862,78.6496
288.5,1161.0,289.1303,493.382,-235.468,667.618,432.15,77.6955,262.36,2.00969e-66,5.64824,86.4468
288.4,1189.0,289.03,522.811,-237.66,666.189,428.529,81.1727,246.065,7.86122e-69,5.93864,95.3529
288.3,1154.0,288.93,489.234,-237.862,664.766,426.904,84.8889,230.237,2.78979e-71,6.25201,105.526
288.2,1166.0,288.8303,502.629,-235.796,663.371,427.575,88.8664,214.981,8.982e-74,6.59083,117.136
288.1,1156.0,288.73,494.031,-231.136,661.969,430.834,93.1304,200.378,2.62359e-76,6.95793,130.367
288.0,1160.0,288.6303,499.428,-223.607,660.572,436.965,97.7091,186.49,6.95246e-79,7.35655,145.41
287.9,1171.0,288.53,511.85,-212.906,659.15,446.244,102.634,173.358,1.67148e-81,7.79039,162.462
287.8,1128.0,288.43,470.231,-198.839,657.769,458.93,107.941,161.008,3.64575e-84,8.26373,181.717
287.7,1160.0,288.3303,503.6,-181.133,656.4,475.266,113.671,149.45,7.21426e-87,8.7815,203.364
287.6,1219.0,288.23,564.102,-159.426,654.898,495.472,119.869,138.679,1.29514e-89,9.34943,227.575
287.5,1232.0,288.1303,578.709,-133.553,653.291,519.738,126.588,128.681,2.10942e-92,9.97422,254.494
287.4,1284.0,288.03,632.412,-103.371,651.588,548.217,133.887,119.433,3.11696e-95,10.6637,284.234
287.3,1299.0,287.93,649.214,-68.7652,649.786,581.02,141.835,110.902,4.17848e-98,11.4271,316.857
287.2,1290.0,287.8303,642.03,-29.7653,647.97,618.204,150.509,103.053,5.08191e-101,12.2754,352.367
287.1,1300.0,287.73,653.853,13.6204,646.147,659.768,160,95.8458,5.60732e-104,13.2215,390.701
287.0,1316.0,287.6303,671.717,61.36,644.283,705.643,170.411,89.2387,5.61313e-107,14.2812,431.712
286.9,1405.0,287.53,762.734,113.428,642.266,755.694,181.863,83.1889,5.09772e-110,15.4733,475.169
286.8,1417.0,287.43,776.899,169.611,640.101,809.712,194.496,77.6537,4.20017e-113,16.8207,520.742
286.7,1459.0,287.3303,821.146,229.569,637.854,867.422,208.472,72.5914,3.13963e-116,18.3517,568.007
286.6,1498.0,287.23,862.514,293.003,635.486,928.489,223.983,67.962,2.12917e-119,20.1009,616.442
286.5,1571.0,287.1303,938.046,359.573,632.954,992.527,241.254,63.7274,1.30998e-122,22.1118,665.434
286.4,1594.0,287.03,963.72,428.848,630.28,1059.13,260.55,59.8518,7.31201e-126,24.4391,714.287
286.3,1712.0,286.93,1084.6,500.481,627.399,1127.88,282.188,56.3021,3.70281e-129,27.1525,762.238
286.2,1774.0,286.8303,1149.74,574.151,624.257,1198.41,306.544,53.0474,1.70116e-132,30.342,808.475
286.1,1844.0,286.73,1223.08,649.499,620.92,1270.42,334.076,50.0597,7.09058e-136,34.125,852.159
286.0,1981.0,286.6303,1363.72,726.476,617.283,1343.76,365.338,47.3134,2.68125e-139,38.6576,892.449
285.9,2027.0,286.53,1413.62,805.103,613.377,1418.48,401.011,44.7852,9.19845e-143,44.1499,928.534
285.8,2131.0,286.43,1521.75,885.69,609.249,1494.94,441.942,42.454,2.86294e-146,50.8904,959.652
285.7,2218.0,286.3303,1613.16,969.068,604.841,1573.91,489.195,40.3011,8.08407e-150,59.2834,985.129
285.6,2301.0,286.23,1700.82,1056.56,600.18,1656.74,544.131,38.3095,2.07095e-153,69.908,1004.4
285.5,2386.0,286.1303,1790.73,1150.34,595.27,1745.61,608.517,36.4638,4.81314e-157,83.6147,1017.01
285.4,2440.0,286.03,1849.85,1253.67,590.151,1843.82,684.696,34.7506,1.01487e-160,101.688,1022.69
285.3,2529.0,285.93,1944.18,1371.6,584.815,1956.41,775.837,33.1576,1.94138e-164,126.126,1021.29
285.2,2742.0,285.8303,2162.96,1511.96,579.039,2091,886.342,31.6739,3.36923e-168,160.129,1012.86
285.1,2887.0,285.73,2314.26,1686.56,572.743,2259.3,1022.5,30.2897,5.30485e-172,208.935,997.577
285.0,3093.0,285.6303,2527.06,1913.59,565.935,2479.53,1193.63,28.9963,7.57767e-176,281.103,975.804
284.9,3382.0,285.53,2823.59,2221.07,558.411,2779.48,1414.06,27.786,9.82017e-180,389.598,948.03
284.8,3682.0,285.43,3131.96,2647.65,550.036,3197.68,1707.07,26.6516,1.15458e-183,549.093,914.869
284.7,4259.0,285.3303,3718.6,3235.46,540.402,3775.86,2112.72,25.5868,1.23154e-187,760.517,877.033
284.6,5026.0,285.23,4497.15,4016.52,528.849,4545.37,2705.19,24.5861,1.19177e-191,980.29,835.306
284.5,6002.0,285.1303,5487.19,5041.62,514.808,5556.43,3629.81,23.6442,1.04631e-195,1112.45,790.515
284.4,7615.0,285.03,7117.92,6515.24,497.082,7012.32,5168.49,22.7566,8.33386e-200,1077.58,743.504
284.3,10084.0,284.93,9610.44,8926.07,473.558,9399.63,7784.53,21.9192,6.02217e-204,898.076,695.103
284.2,13816.0,284.8303,13374.8,12829.8,441.234,13271.1,11931.4,21.1281,3.94804e-208,672.443,646.107
284.1,18764.0,284.73,18367.4,18052.5,396.597,18449.1,17352,20.3799,2.34817e-212,479.481,597.256
284.0,23025.0,284.6303,22686.1,22856.4,338.865,23195.3,22284.9,19.6716,1.26707e-216,341.521,549.214
283.9,24820.0,284.53,24547.6,24534.1,272.442,24806.5,24035.8,19.0002,6.20282e-221,249.152,502.558
283.8,22477.0,284.43,22270.4,21748.9,206.604,21955.5,21291.9,18.3633,2.75486e-225,187.483,457.774
283.7,16787.0,284.3303,16635.1,15997.1,151.892,16149,15570.6,17.7585,1.11002e-229,145.314,415.247
283.6,10456.0,284.23,10342,10108.4,113.955,10222.3,9714.29,17.1836,4.05773e-234,115.568,375.268
283.5,5895.0,284.1303,5803.75,5846.63,91.2503,5937.88,5489.27,16.6366,1.34572e-238,93.9385,338.034
283.4,3322.0,284.03,3243.47,3345.45,78.5275,3423.98,3026.43,16.1158,4.04901e-243,77.7764,303.657
283.3,2016.0,283.93,1944.77,2010.44,71.2315,2081.68,1728.47,15.6194,1.10526e-247,65.4087,272.175
283.2,1413.0,283.8303,1346.4,1294.07,66.6033,1360.68,1046.23,15.146,2.73714e-252,55.7471,243.556
283.1,1069.0,283.73,1005.7,884.254,63.2956,947.549,667.073,14.6941,6.14968e-257,48.0629,217.72
283.0,794.0,283.6303,733.15,631.499,60.8504,692.35,441.694,14.2624,1.25351e-261,41.855,194.538
282.9,595.0,283.53,535.934,465.542,59.0657,524.608,300.132,13.8497,2.31806e-266,36.7703,173.855
282.8,470.0,283.43,412.268,351.348,57.7323,409.08,207.579,13.455,3.88904e-271,32.5547,155.491
282.7,369.0,283.3303,312.287,269.949,56.7134,326.662,145.309,13.0771,5.91943e-276,29.0217,139.254
282.6,324.0,283.23,268.103,210.342,55.8972,266.239,102.544,12.7151,8.17407e-281,26.0321,124.948
282.5,279.0,283.1303,223.795,165.756,55.2054,220.962,72.735,12.3681,1.02404e-285,23.4803,112.378
282.4,244.0,283.03,189.376,131.791,54.6244,186.415,51.739,12.0353,1.1639e-290,21.2851,101.356
282.3,221.0,282.93,166.877,105.521,54.1234,159.644,36.8436,11.7159,1.20016e-295,19.3831,91.7017
282.2,213.0,282.8303,159.335,84.9471,53.6647,138.612,26.2275,11.4092,1.12274e-300,17.7245,83.2505
282.1,178.0,282.73,124.735,68.6114,53.2652,121.877,18.6422,11.1145,9.52886e-306,16.2696,75.8502
282.0,174.0,282.6303,121.08,55.4798,52.9195,108.399,13.218,10.8313,7.33708e-311,14.9864,69.3637
281.9,169.0,282.53,116.414,44.8322,52.5856,97.4177,9.3413,10.5588,5.12538e-316,13.849,63.6686
281.8,161.0,282.43,108.731,36.0963,52.269,88.3653,6.57545,10.2966,3.14e-321,12.8361,58.6571
281.7,144.0,282.3303,92.0133,28.83,51.9867,80.8167,4.60748,10.0441,0.0,11.9302,54.2348
281.6,129.0,282.23,77.2514,22.701,51.7486,74.4497,3.21216,9.80095,0.0,11.1168,50.3197
281.5,126.0,282.1303,74.4647,17.4833,51.5353,69.0186,2.22707,9.56657,0.0,10.3838,46.8412
281.4,135.0,282.03,83.6871,13.0222,51.3129,64.3351,1.53498,9.34058,0.0,9.72079,43.7387
281.3,113.0,281.93,61.8919,9.14557,51.1081,60.2537,1.05137,9.12257,0.0,9.11927,40.9605
281.2,118.0,281.8303,67.0732,5.73522,50.9268,56.662,0.715406,8.91218,0.0,8.57184,38.4626
281.1,117.0,281.73,66.2607,2.73301,50.7393,53.4723,0.483481,8.70904,0.0,8.07222,36.2076
281.0,103.0,281.6303,52.4276,0.0436029,50.5724,50.616,0.324434,8.51283,0.0,7.61499,34.1637
280.9,100.0,281.53,49.5711,-2.38989,50.4289,48.0391,0.216121,8.32323,0.0,7.19551,32.3042
280.8,106.0,281.43,55.7191,-4.58219,50.2809,45.6987,0.142891,8.13995,0.0,6.80972,30.6061
280.7,97.0,281.3303,46.8634,-6.57592,50.1366,43.5607,0.0937494,7.96271,0.0,6.45413,29.0501
280.6,89.0,281.23,38.9841,-8.41835,50.0159,41.5975,0.0610263,7.79124,0.0,6.12565,27.6196
280.5,82.0,281.1303,32.084,-10.1291,49.916,39.7868,0.0394079,7.62529,0.0,5.82161,26.3005
280.4,82.0,281.03,32.1744,-11.7154,49.8256,38.1102,0.025241,7.46462,0.0,5.53964,25.0807
280.3,81.0,280.93,31.2636,-13.1841,49.7364,36.5523,0.0160337,7.30902,0.0,5.27766,23.9496
280.2,74.0,280.8303,24.3418,-14.5577,49.6582,35.1005,0.0100997,7.15826,0.0,5.03382,22.8983
280.1,81.0,280.73,31.4202,-15.8359,49.5798,33.7439,0.00630795,7.01216,0.0,4.80649,21.9189
280.0,82.0,280.6303,32.5101,-17.0166,49.4899,32.4733,0.00390595,6.87051,0.0,4.5942,21.0046
279.9,62.0,280.53,12.5735,-18.1459,49.4265,31.2806,0.00239764,6.73315,0.0,4.39567,20.1494
279.8,68.0,280.43,18.6174,-19.2236,49.3826,30.159,0.00145888,6.59988,0.0,4.20973,19.3479
279.7,78.0,280.3303,28.6839,-20.2137,49.3161,29.1024,0.000879839,6.47057,0.0,4.03533,18.5956
279.6,63.0,280.23,13.7436,-21.1511,49.2564,28.1053,0.000525894,6.34503,0.0,3.87155,17.8882
279.5,64.0,280.1303,14.7837,-22.0532,49.2163,27.1631,0.000311513,6.22314,0.0,3.71753,17.2221
279.4,58.0,280.03,8.81688,-22.9116,49.1831,26.2715,0.000182855,6.10475,0.0,3.57253,16.594
279.3,72.0,279.93,22.8614,-23.712,49.1386,25.4266,0.000106356,5.98973,0.0,3.43584,16.0009
279.2,61.0,279.8303,11.9103,-24.4646,49.0897,24.625,6.12944e-05,5.87795,0.0,3.30684,15.4402
279.1,65.0,279.73,15.9495,-25.1868,49.0505,23.8637,3.49991e-05,5.76928,0.0,3.18497,14.9094
279.0,54.0,279.6303,4.97894,-25.8813,49.0211,23.1398,1.97992e-05,5.66362,0.0,3.06971,14.4064
278.9,59.0,279.53,10.0,-26.5493,49.0,22.4507,1.10962e-05,5.56085,0.0,2.9606,13.9292
278.8,49.0,279.43,0.0,-27.2059,49.0,21.7941,6.16046e-06,5.46086,0.0,2.8572,13.476
278.7,55.0,279.3303,6.0,-27.8321,49.0,21.1679,3.38805e-06,5.36357,0.0,2.75912,13.0452
278.6,53.0,279.23,4.0,-28.4298,49.0,20.5702,1.84571e-06,5.26886,0.0,2.66601,12.6353
278.5,55.0,279.1303,6.0,-29.0009,49.0,19.9991,9.95954e-07,5.17666,0.0,2.57753,12.2449
278.4,53.0,279.03,4.0,-29.547,49.0,19.453,5.32306e-07,5.08686,0.0,2.49338,11.8728
278.3,55.0,278.93,6.0,-30.0696,49.0,18.9304,2.81782e-07,4.99939,0.0,2.41328,11.5178
278.2,61.0,278.8303,12.0,-30.5701,49.0,18.4299,1.47735e-07,4.91417,0.0,2.33698,11.1788
278.1,49.0,278.73,0.0,-31.0497,49.0,17.9503,7.67104e-08,4.83113,0.0,2.26424,10.8549
278.0,54.0,278.6303,5.0,-31.5098,49.0,17.4902,3.94473e-08,4.75018,0.0,2.19485,10.5452
277.9,61.0,278.53,12.0,-31.9514,49.0,17.0486,2.00889e-08,4.67125,0.0,2.12859,10.2488
277.8,63.0,278.43,14.0,-32.3754,49.0,16.6246,1.01313e-08,4.59429,0.0,2.06529,9.96499
277.7,64.0,278.3303,15.0,-32.783,49.0,16.217,5.05972e-09,4.51922,0.0,2.00478,9.69304
277.6,64.0,278.23,15.0,-33.1749,49.0,15.8251,2.50226e-09,4.44598,0.0,1.94688,9.43227
277.5,67.0,278.1303,18.0,-33.5519,49.0,15.4481,1.22539e-09,4.37452,0.0,1.89145,9.18208
277.4,57.0,278.03,8.0,-33.915,49.0,15.085,5.94211e-10,4.30478,0.0,1.83836,8.94189
277.3,49.0,277.93,0.0,-34.2647,49.0,14.7353,2.85314e-10,4.23669,0.0,1.78747,8.71115
277.2,55.0,277.8303,6.0,-34.6017,49.0,14.3983,1.35648e-10,4.17022,0.0,1.73867,8.48939
277.1,50.0,277.73,1.0,-34.9268,49.0,14.0732,6.38551e-11,4.1053,0.0,1.69183,8.27611