File: XPS/LG4X-result/UT-3-C1s.csv
#No of rows lightened (2D detector)1(if not using 2D detector, value is 1 and can be ignored!)
raw_x,raw_y,corrected x,data-bg,sum_components,bg,sum_fit,C=C,pi-pi,pi-pi2,C-C,C-O
295.0,721.0,295.6303,0.0,-664.434,721.0,56.5663,16.1452,28.4767,0.631847,0.328619,10.9839
294.9,762.0,295.53,41.0577,-661.597,720.942,59.3454,16.4394,29.7867,1.56263,0.334974,11.2217
294.8,759.0,295.43,38.1692,-657.635,720.831,63.1962,16.7417,31.1915,3.45428,0.341515,11.4673
294.7,798.0,295.3303,77.3316,-652.021,720.668,68.6473,17.0523,32.7005,6.82526,0.348249,11.7209
294.6,820.0,295.23,99.5804,-644.331,720.42,76.0884,17.3718,34.3242,12.0542,0.355185,11.9831
294.5,840.0,295.1303,119.889,-634.691,720.111,85.4198,17.7002,36.0741,19.0291,0.362331,12.2541
294.4,792.0,295.03,72.1591,-624.085,719.841,95.7561,18.0381,37.9633,26.8507,0.369695,12.5343
294.3,825.0,294.93,105.409,-614.132,719.591,105.459,18.3858,40.0064,33.8651,0.377286,12.8243
294.2,810.0,294.8303,90.6845,-606.665,719.315,112.65,18.7435,42.2197,38.1776,0.385113,13.1243
294.1,842.0,294.73,122.985,-602.984,719.015,116.031,19.1119,44.6211,38.47,0.393187,13.435
294.0,847.0,294.6303,128.338,-603.132,718.662,115.53,19.4912,47.2308,34.6494,0.401518,13.7568
293.9,819.0,294.53,100.66,-605.991,718.34,112.348,19.8819,50.0709,27.8951,0.410117,14.0902
293.8,848.0,294.43,129.985,-609.637,718.015,108.378,20.2845,53.1658,20.0733,0.418996,14.4358
293.7,833.0,294.3303,115.33,-612.295,717.67,105.376,20.6994,56.5424,12.9113,0.428166,14.7943
293.6,800.0,294.23,82.6081,-613.008,717.392,104.384,21.1272,60.2297,7.42297,0.437642,15.1661
293.5,831.0,294.1303,113.884,-611.474,717.116,105.642,21.5685,64.2594,3.81457,0.447436,15.5521
293.4,795.0,294.03,78.1545,-607.994,716.845,108.851,22.0236,68.6651,1.75215,0.457563,15.953
293.3,797.0,293.93,80.3774,-603.089,716.623,113.533,22.4934,73.4829,0.719377,0.468038,16.3694
293.2,808.0,293.8303,91.6193,-597.107,716.381,119.274,22.9783,78.7504,0.263998,0.478878,16.8023
293.1,852.0,293.73,135.939,-590.246,716.061,125.815,23.4791,84.5066,0.0865972,0.4901,17.2525
293.0,846.0,293.6303,130.314,-582.651,715.686,133.036,23.9964,90.7912,0.0253902,0.501722,17.7208
292.9,846.0,293.53,130.681,-574.415,715.319,140.904,24.5311,97.6439,0.00665406,0.513762,18.2084
292.8,861.0,293.43,146.07,-565.499,714.93,149.431,25.0838,105.103,0.00155871,0.526242,18.7163
292.7,872.0,293.3303,157.497,-555.858,714.503,158.645,25.6554,113.205,0.000326366,0.539184,19.2455
292.6,865.0,293.23,150.931,-545.49,714.069,168.579,26.2467,121.982,6.10804e-05,0.55261,19.7974
292.5,870.0,293.1303,156.363,-534.377,713.637,179.261,26.8588,131.462,1.02178e-05,0.566544,20.3732
292.4,880.0,293.03,166.817,-522.47,713.183,190.712,27.4925,141.665,1.52782e-06,0.581014,20.9742
292.3,895.0,292.93,182.308,-509.744,712.692,202.948,28.1489,152.601,2.04196e-07,0.596046,21.6021
292.2,907.0,292.8303,194.839,-496.191,712.161,215.97,28.8291,164.271,2.43938e-08,0.611671,22.2583
292.1,942.0,292.73,230.437,-481.793,711.563,229.77,29.5343,176.663,2.60479e-09,0.62792,22.9447
292.0,977.0,292.6303,266.135,-466.542,710.865,244.323,30.2657,189.749,2.48612e-10,0.644826,23.663
291.9,988.0,292.53,277.9,-450.513,710.1,259.587,31.0245,203.485,2.12096e-11,0.662426,24.4153
291.8,1001.0,292.43,291.701,-433.793,709.299,275.506,31.8123,217.809,1.61734e-12,0.680759,25.2037
291.7,996.0,292.3303,287.515,-416.484,708.485,292,32.6305,232.639,1.10237e-13,0.699865,26.0305
291.6,1034.0,292.23,326.379,-398.647,707.621,308.974,33.4807,247.875,6.71604e-15,0.71979,26.8983
291.5,1083.0,292.1303,376.367,-380.322,706.633,326.311,34.3645,263.396,3.65728e-16,0.74058,27.8098
291.4,1109.0,292.03,403.464,-361.66,705.536,343.876,35.2838,279.062,1.78017e-17,0.762286,28.7679
291.3,1107.0,291.93,402.597,-342.885,704.403,361.517,36.2406,294.716,7.74506e-19,0.784964,29.7759
291.2,1106.0,291.8303,402.73,-324.204,703.27,379.066,37.2367,310.184,3.01194e-20,0.808672,30.8371
291.1,1104.0,291.73,401.861,-305.795,702.139,396.344,38.2745,325.28,1.04695e-21,0.833474,31.9555
291.0,1201.0,291.6303,500.13,-287.709,700.87,413.162,39.3564,339.811,3.25286e-23,0.859439,33.1351
290.9,1128.0,291.53,428.435,-270.238,699.565,429.327,40.4847,353.575,9.03366e-25,0.88664,34.3803
290.8,1200.0,291.43,501.743,-253.61,698.257,444.647,41.6623,366.373,2.24244e-26,0.915158,35.6962
290.7,1198.0,291.3303,501.154,-237.91,696.846,458.937,42.8921,378.011,4.9755e-28,0.945079,37.088
290.6,1230.0,291.23,534.61,-223.369,695.39,472.021,44.1771,388.305,9.86759e-30,0.976498,38.5617
290.5,1172.0,291.1303,478.034,-210.225,693.966,483.74,45.5208,397.086,1.74922e-31,1.00952,40.1236
290.4,1193.0,291.03,500.41,-198.631,692.59,493.959,46.9268,404.207,2.77164e-33,1.04424,41.7809
290.3,1178.0,290.93,486.799,-188.636,691.201,502.565,48.3989,409.544,3.92544e-35,1.0808,43.5414
290.2,1214.0,290.8303,524.22,-180.3,689.78,509.48,49.9414,413.006,4.96934e-37,1.11932,45.4136
290.1,1200.0,290.73,511.677,-173.668,688.323,514.655,51.5589,414.529,5.62299e-39,1.15995,47.407
290.0,1090.0,290.6303,402.963,-168.957,687.037,518.08,53.2562,414.089,5.68716e-41,1.20284,49.5321
289.9,1135.0,290.53,449.162,-166.059,685.838,519.779,55.0388,411.692,5.14141e-43,1.24817,51.8005
289.8,1159.0,290.43,474.46,-164.726,684.54,519.814,56.9125,407.38,4.15458e-45,1.29612,54.2251
289.7,1127.0,290.3303,443.752,-164.967,683.248,518.281,58.8835,401.23,3.00077e-47,1.3469,56.8204
289.6,1166.0,290.23,484.056,-166.633,681.944,515.311,60.9588,393.349,1.93729e-49,1.40074,59.6021
289.5,1156.0,290.1303,475.406,-169.531,680.594,511.063,63.1457,383.871,1.11794e-51,1.45789,62.5883
289.4,1137.0,290.03,457.718,-173.559,679.282,505.723,65.4526,372.953,5.76632e-54,1.51864,65.7989
289.3,1141.0,289.93,463.013,-178.488,677.987,499.499,67.8883,360.772,2.65851e-56,1.58329,69.2563
289.2,1122.0,289.8303,445.29,-184.094,676.71,492.616,70.4625,347.516,1.09556e-58,1.65218,72.9857
289.1,1104.0,289.73,428.519,-190.17,675.481,485.311,73.1861,333.384,4.03548e-61,1.7257,77.0154
289.0,1131.0,289.6303,456.764,-196.408,674.236,477.828,76.0707,318.575,1.32865e-63,1.80427,81.3775
288.9,1134.0,289.53,461.054,-202.531,672.946,470.415,79.1294,303.289,3.91009e-66,1.88838,86.1081
288.8,1134.0,289.43,462.353,-208.328,671.647,463.319,82.3764,287.715,1.02854e-68,1.97855,91.2483
288.7,1142.0,289.3303,471.666,-213.55,670.334,456.783,85.8276,272.036,2.41832e-71,2.0754,96.8448
288.6,1152.0,289.23,483.009,-217.944,668.991,451.047,89.5004,256.416,5.08237e-74,2.17959,102.951
288.5,1161.0,289.1303,493.382,-221.279,667.618,446.339,93.4141,241.007,9.54722e-77,2.29191,109.626
288.4,1189.0,289.03,522.811,-223.305,666.189,442.884,97.5905,225.939,1.60305e-79,2.41323,116.941
288.3,1154.0,288.93,489.234,-223.869,664.766,440.897,102.053,211.324,2.40589e-82,2.54454,124.975
288.2,1166.0,288.8303,502.629,-222.781,663.371,440.59,106.83,197.255,3.22747e-85,2.68699,133.819
288.1,1156.0,288.73,494.031,-219.798,661.969,442.172,111.949,183.803,3.86998e-88,2.84189,143.577
288.0,1160.0,288.6303,499.428,-214.721,660.572,445.852,117.446,171.024,4.14776e-91,3.01075,154.371
287.9,1171.0,288.53,511.85,-207.305,659.15,451.845,123.358,158.953,3.97354e-94,3.19532,166.339
287.8,1128.0,288.43,470.231,-197.392,657.769,460.377,129.727,147.61,3.40252e-97,3.39765,179.643
287.7,1160.0,288.3303,503.6,-184.709,656.4,471.691,136.602,137.004,2.60425e-100,3.62013,194.465
287.6,1219.0,288.23,564.102,-168.85,654.898,486.049,144.037,127.127,1.78165e-103,3.86558,211.019
287.5,1232.0,288.1303,578.709,-149.547,653.291,503.744,152.095,117.965,1.08949e-106,4.13732,229.546
287.4,1284.0,288.03,632.412,-126.484,651.588,525.104,160.847,109.494,5.95499e-110,4.43933,250.324
287.3,1299.0,287.93,649.214,-99.2895,649.786,550.496,170.372,101.684,2.90936e-113,4.77638,273.663
287.2,1290.0,287.8303,642.03,-67.6393,647.97,580.331,180.765,94.5012,1.2705e-116,5.15426,299.91
287.1,1300.0,287.73,653.853,-31.0874,646.147,615.06,192.13,87.9078,4.95917e-120,5.58003,329.442
287.0,1316.0,287.6303,671.717,10.8901,644.283,655.173,204.591,81.8648,1.73023e-123,6.06239,362.655
286.9,1405.0,287.53,762.734,58.9122,642.266,701.178,218.289,76.3325,5.3958e-127,6.61221,399.945
286.8,1417.0,287.43,776.899,113.468,640.101,753.569,233.388,71.2712,1.50407e-130,7.2432,441.667
286.7,1459.0,287.3303,821.146,174.918,637.854,812.772,250.079,66.6426,3.74746e-134,7.97299,488.078
286.6,1498.0,287.23,862.514,243.574,635.486,879.061,268.586,62.4096,8.34578e-138,8.82455,539.24
286.5,1571.0,287.1303,938.046,319.478,632.954,952.432,289.171,58.5374,1.66133e-141,9.82864,594.896
286.4,1594.0,287.03,963.72,402.173,630.28,1032.45,312.142,54.9931,2.95598e-145,11.0276,654.29
286.3,1712.0,286.93,1084.6,490.679,627.399,1118.08,337.867,51.7461,4.70119e-149,12.4818,715.983
286.2,1774.0,286.8303,1149.74,583.25,624.257,1207.51,366.784,48.7685,6.68302e-153,14.2819,777.672
286.1,1844.0,286.73,1223.08,677.228,620.92,1298.15,399.419,46.0345,8.49173e-157,16.5711,836.123
286.0,1981.0,286.6303,1363.72,769.547,617.283,1386.83,436.414,43.5208,9.64447e-161,19.587,887.308
285.9,2027.0,286.53,1413.62,856.976,613.377,1470.35,478.551,41.206,9.79084e-165,23.7374,926.859
285.8,2131.0,286.43,1521.75,937.177,609.249,1546.43,526.803,39.0711,8.88423e-169,29.7298,950.822
285.7,2218.0,286.3303,1613.16,1009.96,604.841,1614.8,582.39,37.0988,7.20575e-173,38.7702,956.544
285.6,2301.0,286.23,1700.82,1078.15,600.18,1678.33,646.866,35.2737,5.22392e-177,52.8281,943.361
285.5,2386.0,286.1303,1790.73,1148.25,595.27,1743.52,722.243,33.5819,3.38512e-181,74.9082,912.784
285.4,2440.0,286.03,1849.85,1230.31,590.151,1820.46,811.174,32.011,1.96069e-185,109.185,868.086
285.3,2529.0,285.93,1944.18,1337.21,584.815,1922.03,917.227,30.5499,1.01509e-189,160.76,813.491
285.2,2742.0,285.8303,2162.96,1483.54,579.039,2062.58,1045.32,29.1886,4.6974e-194,234.766,753.307
285.1,2887.0,285.73,2314.26,1683.57,572.743,2256.31,1202.42,27.9183,1.94298e-198,334.69,691.28
285.0,3093.0,285.6303,2527.06,1949.86,565.935,2515.8,1398.68,26.731,7.18357e-203,460.109,630.278
284.9,3382.0,285.53,2823.59,2293.49,558.411,2851.9,1649.49,25.6196,2.37394e-207,604.549,572.241
284.8,3682.0,285.43,3131.96,2726.55,550.036,3276.59,1979.14,24.5777,7.01228e-212,754.552,518.316
284.7,4259.0,285.3303,3718.6,3271.22,540.402,3811.63,2428.05,23.5995,1.85143e-216,890.94,469.035
284.6,5026.0,285.23,4497.15,3978.39,528.849,4507.24,3067.46,22.6799,4.36932e-221,992.584,424.511
284.5,6002.0,285.1303,5487.19,4963.4,514.808,5478.21,4030,21.8142,9.21677e-226,1041.8,384.591
284.4,7615.0,285.03,7117.92,6467.78,497.082,6964.86,5565.41,20.9982,1.73781e-230,1029.49,348.97
284.3,10084.0,284.93,9610.44,8915.18,473.558,9388.74,8093.28,20.2282,2.92878e-235,957.957,317.27
284.2,13816.0,284.8303,13374.8,12781.4,441.234,13222.6,12073.8,19.5006,4.41193e-240,840.194,289.092
284.1,18764.0,284.73,18367.4,17953.9,396.597,18350.5,17371.7,18.8123,5.94058e-245,695.918,264.046
284.0,23025.0,284.6303,22686.1,22813.3,338.865,23152.2,22346.2,18.1606,7.14972e-250,546.076,241.766
283.9,24820.0,284.53,24547.6,24588.8,272.442,24861.3,24213.9,17.5428,7.69144e-255,407.91,221.919
283.8,22477.0,284.43,22270.4,21797.4,206.604,22004,21490.7,16.9566,7.3958e-260,292.138,204.208
283.7,16787.0,284.3303,16635.1,15982.7,151.892,16134.5,15727.1,16.3998,6.35655e-265,202.645,188.371
283.6,10456.0,284.23,10342,10099.3,113.955,10213.3,9885.19,15.8705,4.88333e-270,138.031,174.177
283.5,5895.0,284.1303,5803.75,5893.5,91.2503,5984.75,5714.04,15.3668,3.35329e-275,93.9119,161.425
283.4,3322.0,284.03,3243.47,3421.35,78.5275,3499.88,3270.04,14.8871,2.05818e-280,65.0098,149.942
283.3,2016.0,283.93,1944.77,2073.66,71.2315,2144.89,1944.36,14.4299,1.12916e-285,46.524,139.576
283.2,1413.0,283.8303,1346.4,1328.59,66.6033,1395.19,1216.26,13.9938,5.53715e-291,34.7389,130.195
283.1,1069.0,283.73,1005.7,893.337,63.2956,956.633,794.283,13.5774,2.42703e-296,27.0858,121.686
283.0,794.0,283.6303,733.15,623.614,60.8504,684.464,535.406,13.1796,9.50876e-302,21.9301,113.948
282.9,595.0,283.53,535.934,448.045,59.0657,507.11,369.123,12.7993,3.3299e-307,18.2909,106.897
282.8,470.0,283.43,412.268,329.329,57.7323,387.062,258.572,12.4354,1.04231e-312,15.5984,100.456
282.7,369.0,283.3303,312.287,246.629,56.7134,303.343,183.172,12.087,2.91617e-318,13.5237,94.5595
282.6,324.0,283.23,268.103,187.644,55.8972,243.541,130.764,11.7533,0.0,11.8734,89.1506
282.5,279.0,283.1303,223.795,144.76,55.2054,199.965,93.8244,11.4334,0.0,10.5286,84.1787
282.4,244.0,283.03,189.376,113.035,54.6244,167.66,67.5215,11.1265,0.0,9.41244,79.5994
282.3,221.0,282.93,166.877,89.2129,54.1234,143.336,48.658,10.8319,0.0,8.47274,75.3737
282.2,213.0,282.8303,159.335,71.0885,53.6647,124.753,35.0647,10.5491,0.0,7.67233,71.4671
282.1,178.0,282.73,124.735,57.0864,53.2652,110.352,25.2413,10.2773,0.0,6.98387,67.8492
282.0,174.0,282.6303,121.08,46.1095,52.9195,99.0291,18.1335,10.0159,0.0,6.38672,64.4929
281.9,169.0,282.53,116.414,37.4091,52.5856,89.9946,12.991,9.76456,0.0,5.86494,61.3741
281.8,161.0,282.43,108.731,30.4061,52.269,82.6751,9.27487,9.52263,0.0,5.40605,58.4715
281.7,144.0,282.3303,92.0133,24.6643,51.9867,76.651,6.59518,9.28967,0.0,5.00009,55.766
281.6,129.0,282.23,77.2514,19.8648,51.7486,71.6134,4.66858,9.06523,0.0,4.63905,53.2405
281.5,126.0,282.1303,74.4647,15.7983,51.5353,67.3335,3.28848,8.84892,0.0,4.31644,50.8797
281.4,135.0,282.03,83.6871,12.3282,51.3129,63.641,2.30404,8.64033,0.0,4.02687,48.6698
281.3,113.0,281.93,61.8919,9.30049,51.1081,60.4086,1.60519,8.43909,0.0,3.76593,46.5984
281.2,118.0,281.8303,67.0732,6.6141,50.9268,57.5409,1.11165,8.24487,0.0,3.5299,44.6545
281.1,117.0,281.73,66.2607,4.22663,50.7393,54.9659,0.765072,8.05733,0.0,3.31567,42.8278
281.0,103.0,281.6303,52.4276,2.05696,50.5724,52.6293,0.523145,7.87617,0.0,3.1206,41.1094
280.9,100.0,281.53,49.5711,0.0609075,50.4289,50.4899,0.355331,7.70111,0.0,2.94244,39.491
280.8,106.0,281.43,55.7191,-1.76507,50.2809,48.5158,0.23969,7.53187,0.0,2.77928,37.965
280.7,97.0,281.3303,46.8634,-3.45382,50.1366,46.6828,0.160544,7.36819,0.0,2.62946,36.5246
280.6,89.0,281.23,38.9841,-5.04408,50.0159,44.9718,0.106757,7.20982,0.0,2.49154,35.1637
280.5,82.0,281.1303,32.084,-6.5481,49.916,43.3679,0.070467,7.05655,0.0,2.3643,33.8765
280.4,82.0,281.03,32.1744,-7.96664,49.8256,41.8589,0.0461645,6.90815,0.0,2.24664,32.658
280.3,81.0,280.93,31.2636,-9.30103,49.7364,40.4354,0.0300128,6.76442,0.0,2.13762,31.5033
280.2,74.0,280.8303,24.3418,-10.5691,49.6582,39.0891,0.0193612,6.62516,0.0,2.0364,30.4081
280.1,81.0,280.73,31.4202,-11.7664,49.5798,37.8134,0.0123918,6.49019,0.0,1.94226,29.3685
280.0,82.0,280.6303,32.5101,-12.8873,49.4899,36.6025,0.00786818,6.35932,0.0,1.85455,28.3808
279.9,62.0,280.53,12.5735,-13.9748,49.4265,35.4517,0.00495575,6.23241,0.0,1.77268,27.4416
279.8,68.0,280.43,18.6174,-15.0262,49.3826,34.3564,0.00309601,6.10928,0.0,1.69615,26.5478
279.7,78.0,280.3303,28.6839,-16.0032,49.3161,33.3129,0.00191831,5.98978,0.0,1.62451,25.6967
279.6,63.0,280.23,13.7436,-16.9387,49.2564,32.3177,0.00117876,5.87378,0.0,1.55733,24.8854
279.5,64.0,280.1303,14.7837,-17.8485,49.2163,31.3678,0.000718282,5.76114,0.0,1.49426,24.1117
279.4,58.0,280.03,8.81688,-18.7229,49.1831,30.4603,0.000434006,5.65172,0.0,1.43496,23.3731
279.3,72.0,279.93,22.8614,-19.546,49.1386,29.5926,0.000260018,5.54542,0.0,1.37914,22.6678
279.2,61.0,279.8303,11.9103,-20.3273,49.0897,28.7624,0.000154451,5.4421,0.0,1.32654,21.9936
279.1,65.0,279.73,15.9495,-21.083,49.0505,27.9675,9.09569e-05,5.34166,0.0,1.2769,21.3489
279.0,54.0,279.6303,4.97894,-21.8151,49.0211,27.2059,5.31027e-05,5.24399,0.0,1.23001,20.7319
278.9,59.0,279.53,10.0,-22.5243,49.0,26.4757,3.07335e-05,5.14899,0.0,1.18566,20.1411
278.8,49.0,279.43,0.0,-23.2248,49.0,25.7752,1.7632e-05,5.05656,0.0,1.14368,19.575
278.7,55.0,279.3303,6.0,-23.8972,49.0,25.1028,1.0027e-05,4.96661,0.0,1.1039,19.0323
278.6,53.0,279.23,4.0,-24.5431,49.0,24.4569,5.65192e-06,4.87905,0.0,1.06617,18.5117
278.5,55.0,279.1303,6.0,-25.1638,49.0,23.8362,3.15765e-06,4.7938,0.0,1.03035,18.012
278.4,53.0,279.03,4.0,-25.7607,49.0,23.2393,1.74848e-06,4.71078,0.0,0.996309,17.5322
278.3,55.0,278.93,6.0,-26.335,49.0,22.665,9.5955e-07,4.6299,0.0,0.963934,17.0712
278.2,61.0,278.8303,12.0,-26.8878,49.0,22.1122,5.21883e-07,4.5511,0.0,0.933117,16.628
278.1,49.0,278.73,0.0,-27.4202,49.0,21.5798,2.81296e-07,4.47431,0.0,0.903759,16.2018
278.0,54.0,278.6303,5.0,-27.9332,49.0,21.0668,1.50254e-07,4.39945,0.0,0.87577,15.7916
277.9,61.0,278.53,12.0,-28.4277,49.0,20.5723,7.95328e-08,4.32646,0.0,0.849065,15.3968
277.8,63.0,278.43,14.0,-28.9047,49.0,20.0953,4.17173e-08,4.25528,0.0,0.823567,15.0165
277.7,64.0,278.3303,15.0,-29.3649,49.0,19.6351,2.16832e-08,4.18585,0.0,0.799204,14.65
277.6,64.0,278.23,15.0,-29.8092,49.0,19.1908,1.11675e-08,4.11812,0.0,0.775909,14.2968
277.5,67.0,278.1303,18.0,-30.2383,49.0,18.7617,5.69909e-09,4.05202,0.0,0.753621,13.9561
277.4,57.0,278.03,8.0,-30.6529,49.0,18.3471,2.88179e-09,3.98751,0.0,0.732282,13.6274
277.3,49.0,277.93,0.0,-31.0536,49.0,17.9464,1.44384e-09,3.92453,0.0,0.711839,13.3101
277.2,55.0,277.8303,6.0,-31.441,49.0,17.559,7.16739e-10,3.86304,0.0,0.692242,13.0037
277.1,50.0,277.73,1.0,-31.8159,49.0,17.1841,3.52521e-10,3.80299,0.0,0.673446,12.7077