File: XPS/LG4X-result/UT-C1s.csv
#No of rows lightened (2D detector)1(if not using 2D detector, value is 1 and can be ignored!)
raw_x,raw_y,corrected x,data-bg,sum_components,bg,sum_fit,bg_shirley_,C=C,pi-pi*,pi-pi2,C-C,C-O,C=O,O-C=O
294.9,41.0578,295.531,-37.3328,21.9366,78.3906,100.327,78.3906,16.5205,0.100147,3.67671e-06,5.21181,0.00447756,0.0584262,0.0412557
294.8,38.1693,295.431,-40.208,22.3912,78.3773,100.768,78.3773,16.8231,0.14386,4.07142e-06,5.31708,0.00457939,0.0599852,0.0425906
294.7,77.3318,295.331,-1.03317,22.8749,78.365,101.24,78.365,17.1341,0.204972,4.41951e-06,5.42561,0.00468473,0.0616078,0.0439918
294.6,99.5808,295.231,21.2409,23.3945,78.3399,101.734,78.3399,17.4538,0.289667,4.70264e-06,5.53753,0.00479377,0.0632975,0.0454638
294.5,119.89,295.1307,41.5821,23.9585,78.3076,102.266,78.3076,17.7825,0.406025,4.90512e-06,5.65299,0.00490666,0.0650581,0.0470115
294.4,72.1599,295.031,-6.10868,24.5778,78.2686,102.846,78.2686,18.1206,0.564491,5.01531e-06,5.77213,0.0050236,0.0668936,0.0486402
294.3,105.41,294.931,27.1646,25.2663,78.2452,103.511,78.2452,18.4684,0.778415,5.02673e-06,5.89513,0.00514478,0.0688084,0.0503557
294.2,90.6858,294.831,12.4748,26.0414,78.2109,104.252,78.2109,18.8264,1.06467,4.93872e-06,6.02214,0.00527042,0.0708071,0.0521644
294.1,122.986,294.731,44.805,26.9249,78.1815,105.106,78.1815,19.1948,1.44434,4.75645e-06,6.15335,0.00540073,0.0728948,0.0540732
294.0,128.34,294.6307,50.1986,27.9433,78.1415,106.085,78.1415,19.5742,1.94345,4.49048e-06,6.28895,0.00553594,0.0750768,0.0560897
293.9,100.662,294.531,22.5626,29.1291,78.0998,107.229,78.0998,19.965,2.59375,4.15568e-06,6.42914,0.00567631,0.077359,0.0582223
293.8,129.987,294.431,51.9199,30.5212,78.0671,108.588,78.0671,20.3675,3.43347,3.76991e-06,6.57412,0.00582211,0.0797476,0.0604801
293.7,115.332,294.331,37.3074,32.1657,78.0248,110.191,78.0248,20.7824,4.50803,3.35244e-06,6.72413,0.00597361,0.0822493,0.0628731
293.6,82.6108,294.231,4.62344,34.1166,77.9874,112.104,77.9874,21.2101,5.87072,2.92234e-06,6.87941,0.00613113,0.0848716,0.0654126
293.5,113.887,294.1307,35.9268,36.4364,77.9605,114.397,77.9605,21.6511,7.58309,2.49713e-06,7.0402,0.00629498,0.0876224,0.068111
293.4,78.1576,294.031,0.23405,39.1959,77.9235,117.119,77.9235,22.106,9.71518,2.09166e-06,7.20677,0.00646551,0.0905101,0.0709818
293.3,80.3807,293.931,2.48251,42.4745,77.8982,120.373,77.8982,22.5754,12.3454,1.71744e-06,7.37941,0.00664309,0.0935443,0.0740403
293.2,91.6227,293.831,13.7507,46.3593,77.8721,124.231,77.8721,23.0599,15.56,1.38233e-06,7.55842,0.00682811,0.096735,0.0773035
293.1,135.943,293.731,58.1006,50.9443,77.8423,128.787,77.8423,23.5602,19.452,1.09065e-06,7.74413,0.00702101,0.100093,0.0807904
293.0,130.318,293.6307,52.5196,56.3288,77.7981,134.127,77.7981,24.077,24.1196,8.43519e-07,7.93687,0.00722223,0.103631,0.084522
292.9,130.685,293.531,52.9292,62.6149,77.7558,140.371,77.7558,24.6109,29.6637,6.39508e-07,8.13702,0.00743225,0.107362,0.0885223
292.8,146.074,293.431,68.3612,69.9047,77.7133,147.618,77.7133,25.1629,36.1851,4.75267e-07,8.34496,0.00765162,0.1113,0.0928182
292.7,157.502,293.331,79.8359,78.2963,77.6658,155.962,77.6658,25.7336,43.7809,3.46234e-07,8.56112,0.00788088,0.115461,0.09744
292.6,150.936,293.231,73.3212,87.8802,77.6145,165.495,77.6145,26.3239,52.54,2.47253e-07,8.78593,0.00812065,0.119863,0.102422
292.5,156.368,293.1307,78.8028,98.7335,77.5654,176.299,77.5654,26.9348,62.5381,1.73083e-07,9.01988,0.00837158,0.124524,0.107804
292.4,166.823,293.031,89.3085,110.915,77.5146,188.43,77.5146,27.5672,73.8329,1.1877e-07,9.26347,0.00863438,0.129466,0.11363
292.3,182.314,292.931,104.854,124.461,77.4603,201.921,77.4603,28.2221,86.458,7.98913e-08,9.51726,0.00890982,0.134711,0.119953
292.2,194.845,292.831,117.444,139.377,77.401,216.778,77.401,28.9007,100.418,5.26784e-08,9.78184,0.00919871,0.140287,0.126831
292.1,230.444,292.731,153.106,155.634,77.3375,232.971,77.3375,29.6041,115.682,3.40491e-08,10.0578,0.00950196,0.146221,0.134333
292.0,266.142,292.6307,188.88,173.166,77.2625,250.428,77.2625,30.3334,132.182,2.15734e-08,10.3459,0.00982054,0.152545,0.142539
291.9,277.908,292.531,200.732,191.863,77.1758,269.039,77.1758,31.09,149.805,1.3399e-08,10.6469,0.0101555,0.159294,0.151544
291.8,291.71,292.431,214.624,211.571,77.0853,288.657,77.0853,31.8754,168.396,8.15767e-09,10.9614,0.010508,0.16651,0.161458
291.7,287.525,292.331,210.535,232.092,76.9903,309.082,76.9903,32.6908,187.753,4.86856e-09,11.2905,0.0108793,0.174235,0.172414
291.6,326.389,292.231,249.492,253.183,76.8967,330.079,76.8967,33.538,207.632,2.84823e-09,11.635,0.0112707,0.182521,0.184568
291.5,376.378,292.1307,299.587,274.561,76.7903,351.351,76.7903,34.4185,227.745,1.63339e-09,11.9958,0.0116838,0.191424,0.198111
291.4,403.475,292.031,326.808,295.908,76.6677,372.576,76.6677,35.3342,247.773,9.18213e-10,12.3742,0.0121202,0.201008,0.213279
291.3,402.61,291.931,326.073,316.881,76.5362,393.417,76.5362,36.2869,267.369,5.05986e-10,12.7713,0.0125817,0.211346,0.230364
291.2,402.743,291.831,326.338,337.117,76.4051,413.522,76.4051,37.2787,286.165,2.73321e-10,13.1884,0.0130702,0.222521,0.249741
291.1,401.875,291.731,325.602,356.248,76.2738,432.522,76.2738,38.3117,303.789,1.44727e-10,13.6269,0.013588,0.234629,0.271915
291.0,500.145,291.6307,424.002,373.91,76.1429,450.052,76.1429,39.3883,319.873,7.51216e-11,14.0884,0.0141374,0.247779,0.297595
290.9,428.452,291.531,352.472,389.757,75.9799,465.737,75.9799,40.5109,334.067,3.82226e-11,14.5744,0.0147211,0.262099,0.327858
290.8,501.761,291.431,425.92,403.478,75.8403,479.318,75.8403,41.6823,346.051,1.90641e-11,15.087,0.0153421,0.277736,0.364459
290.7,501.172,291.331,425.495,414.801,75.6767,490.478,75.6767,42.9052,355.546,9.32079e-12,15.6281,0.0160035,0.294863,0.410439
290.6,534.63,291.231,459.116,423.513,75.5134,499.026,75.5134,44.1827,362.329,4.46713e-12,16.1999,0.016709,0.313684,0.471289
290.5,478.055,291.1307,402.716,429.466,75.3392,504.805,75.3392,45.5181,366.234,2.09868e-12,16.8051,0.0174628,0.334439,0.55706
290.4,500.432,291.031,425.248,432.591,75.1834,507.775,75.1834,46.9151,367.168,9.66501e-13,17.4463,0.0182693,0.357419,0.686053
290.3,486.821,290.931,411.801,432.905,75.0203,507.925,75.0203,48.3774,365.108,4.36314e-13,18.1266,0.0191336,0.382973,0.890861
290.2,524.244,290.831,449.382,430.522,74.8616,505.383,74.8616,49.9091,360.104,1.9308e-13,18.8494,0.0200614,0.411534,1.22765
290.1,511.702,290.731,437.011,425.664,74.6907,500.355,74.6907,51.5148,352.277,8.37557e-14,19.6187,0.0210593,0.443643,1.78931
290.0,402.989,290.6307,328.465,418.677,74.524,493.201,74.524,53.1993,341.815,3.56149e-14,20.4386,0.0221345,0.480005,2.72231
289.9,449.188,290.531,374.796,410.036,74.3927,484.428,74.3927,54.9678,328.963,1.48453e-14,21.3142,0.0232953,0.521568,4.24553
289.8,474.488,290.431,400.242,400.355,74.2463,474.602,74.2463,56.8261,314.018,6.0658e-15,22.2508,0.0245513,0.569677,6.66685
289.7,443.78,290.331,369.689,390.389,74.0917,464.48,74.0917,58.7802,297.311,2.42955e-15,23.2549,0.0259133,0.626356,10.3905
289.6,484.086,290.231,410.139,380.999,73.947,454.946,73.947,60.8369,279.201,9.53905e-16,24.3335,0.0273939,0.69481,15.9056
289.5,475.437,290.1307,401.647,373.114,73.7893,446.903,73.7893,63.0035,260.06,3.67134e-16,25.4949,0.0290073,0.78034,23.7454
289.4,457.75,290.031,384.115,367.63,73.6343,441.264,73.6343,65.288,240.26,1.38511e-16,26.7487,0.0307705,0.891939,34.4106
289.3,463.046,289.931,389.56,365.299,73.4852,438.784,73.4852,67.6992,220.16,5.12251e-17,28.1057,0.0327028,1.04498,48.2567
289.2,445.324,289.831,371.99,366.584,73.3343,439.918,73.3343,70.2464,200.099,1.85704e-17,29.5789,0.0348271,1.26555,65.3589
289.1,428.554,289.731,355.365,371.523,73.1891,444.712,73.1891,72.9403,180.386,6.59936e-18,31.183,0.0371705,1.59709,85.3798
289.0,456.8,289.6307,383.75,379.647,73.0495,452.697,73.0495,75.7923,161.291,2.29891e-18,32.9356,0.0397651,2.10991,107.479
288.9,461.091,289.531,388.191,389.972,72.9006,462.873,72.9006,78.8149,143.043,7.85022e-19,34.8571,0.0426491,2.91392,130.301
288.8,462.391,289.431,389.641,401.112,72.7504,473.862,72.7504,82.0221,125.827,2.62774e-19,36.9716,0.045869,4.17407,152.071
288.7,471.706,289.331,399.106,411.501,72.5997,484.101,72.5997,85.4293,109.782,8.62229e-20,39.3075,0.0494811,6.12682,170.806
288.6,483.049,289.231,410.603,419.705,72.446,492.151,72.446,89.0534,95.0031,2.77334e-20,41.8982,0.0535552,9.09388,184.603
288.5,493.423,289.1307,421.135,424.742,72.2885,497.031,72.2885,92.9133,81.5446,8.74429e-21,44.7832,0.058179,13.4877,191.955
288.4,522.854,289.031,450.726,426.356,72.1277,498.483,72.1277,97.0299,69.4229,2.70262e-21,48.0087,0.0634676,19.8016,192.029
288.3,489.278,288.931,417.321,425.139,71.9573,497.096,71.9573,101.426,58.6219,8.18817e-22,51.629,0.069582,28.5757,184.816
288.2,502.674,288.831,430.876,422.483,71.7979,494.28,71.7979,106.129,49.0984,2.4318e-22,55.7077,0.0767755,40.335,171.136
288.1,494.077,288.731,422.442,420.335,71.634,491.969,71.634,111.166,40.7873,7.07963e-23,60.3186,0.0855137,55.4958,152.481
288.0,499.475,288.6307,428.002,420.826,71.473,492.299,71.473,116.572,33.6072,2.02038e-23,65.5471,0.0967826,74.2514,130.752
287.9,511.898,288.531,440.588,425.834,71.3102,497.144,71.3102,122.381,27.4657,5.65191e-24,71.4912,0.112859,96.4506,107.932
287.8,470.28,288.431,399.137,436.604,71.1434,507.748,71.1434,128.637,22.2637,1.54988e-24,78.2626,0.139133,121.498,85.8041
287.7,503.651,288.331,432.661,453.496,70.9901,524.486,70.9901,135.385,17.9001,4.1662e-25,85.9872,0.188149,148.304,65.7317
287.6,564.154,288.231,493.328,475.925,70.826,546.751,70.826,142.679,14.2746,1.0978e-25,94.8056,0.287943,175.312,48.5664
287.5,578.762,288.1307,508.12,502.517,70.6421,573.159,70.6421,150.579,11.2907,2.83561e-26,104.873,0.497926,200.621,34.6549
287.4,632.466,288.031,562.013,531.428,70.4535,601.881,70.4535,159.155,8.85787,7.17976e-27,116.356,0.936508,222.193,23.9291
287.3,649.27,287.931,579.023,560.795,70.2473,631.042,70.2473,168.486,6.89267,1.78202e-27,129.436,1.82442,238.118,16.0375
287.2,642.088,287.831,572.052,589.203,70.0357,659.239,70.0357,178.663,5.3198,4.33568e-28,144.3,3.54441,246.895,10.4813
287.1,653.911,287.731,584.085,616.107,69.8264,685.933,69.8264,189.792,4.07243,1.03405e-28,161.141,6.70988,247.665,6.7269
287.0,671.777,287.6307,602.164,642.095,69.6132,711.709,69.6132,201.996,3.09216,2.41749e-29,180.15,12.2215,240.352,4.28387
286.9,762.796,287.531,693.402,668.952,69.3942,738.347,69.3942,215.419,2.32874,5.54026e-30,201.511,21.274,225.674,2.74606
286.8,776.963,287.431,707.817,699.455,69.1456,768.6,69.1456,230.227,1.73952,1.24461e-30,225.392,35.265,205.028,1.8037
286.7,821.212,287.331,752.319,736.907,68.8923,805.799,68.8923,246.619,1.2888,2.74081e-31,251.937,55.5606,180.266,1.23627
286.6,862.581,287.231,793.957,784.458,68.6245,853.083,68.6245,264.829,0.947099,5.9165e-32,281.252,83.1088,153.425,0.896051
286.5,938.115,287.1307,869.772,844.322,68.3433,912.666,68.3433,285.139,0.690325,1.25196e-32,313.4,117.954,126.449,0.689257
286.4,963.792,287.031,895.754,917.082,68.0374,985.12,68.0374,307.882,0.499071,2.5969e-33,348.385,158.784,100.973,0.559131
286.3,1084.67,286.931,1016.95,1001.3,67.7232,1069.03,67.7232,333.467,0.357866,5.28034e-34,386.141,202.687,78.1775,0.472712
286.2,1149.82,286.831,1082.45,1093.63,67.3696,1161,67.3696,362.387,0.254524,1.05246e-34,426.526,245.305,58.75,0.411484
286.1,1223.16,286.731,1156.16,1189.48,66.9946,1256.48,66.9946,395.249,0.179551,2.05633e-35,469.309,281.458,42.9186,0.365271
286.0,1363.8,286.6307,1297.2,1284.12,66.5958,1350.71,66.5958,432.806,0.125631,3.9384e-36,514.17,306.142,30.546,0.328519
285.9,1413.71,286.531,1347.56,1373.98,66.1511,1440.13,66.1511,475.997,0.0871878,7.39413e-37,560.688,315.659,21.2483,0.29815
285.8,1521.84,286.431,1456.15,1457.74,65.6901,1523.43,65.6901,526.007,0.0600157,1.3608e-37,608.352,308.531,14.5133,0.27239
285.7,1613.25,286.331,1548.06,1536.86,65.1938,1602.06,65.1938,584.346,0.0409754,2.45494e-38,656.559,285.868,9.79784,0.250155
285.6,1700.92,286.231,1636.25,1615.53,64.6678,1680.2,64.6678,652.958,0.027748,4.34138e-39,704.625,251.091,6.59648,0.230726
285.5,1790.83,286.1307,1726.72,1699.97,64.1131,1764.08,64.1131,734.373,0.0186377,7.52585e-40,751.8,209.082,4.48016,0.2136
285.4,1849.95,286.031,1786.42,1797.6,63.5291,1861.13,63.5291,831.925,0.0124165,1.27886e-40,797.288,165.067,3.11015,0.198397
285.3,1944.29,285.931,1881.37,1916.33,62.9258,1979.25,62.9258,950.065,0.00820464,2.13025e-41,840.263,123.571,2.23484,0.184824
285.2,2163.07,285.831,2100.78,2064.32,62.2918,2126.61,62.2918,1094.83,0.00537736,3.4784e-42,879.901,87.7371,1.67706,0.172644
285.1,2314.37,285.731,2252.79,2250.54,61.5864,2312.13,61.5864,1274.55,0.00349565,5.5676e-43,915.402,59.1026,1.31778,0.161666
285.0,2527.19,285.6307,2466.36,2486.09,60.8316,2546.92,60.8316,1501.04,0.00225391,8.73568e-44,946.022,37.7954,1.0803,0.151733
284.9,2823.72,285.531,2763.71,2786.65,60.0074,2846.66,60.0074,1791.53,0.00144144,1.34359e-44,971.095,22.9675,0.916965,0.142711
284.8,3132.1,285.431,3073.01,3176.48,59.0865,3235.57,59.0865,2172.2,0.000914337,2.0257e-45,990.063,13.2862,0.798994,0.134489
284.7,3718.74,285.331,3660.67,3695.55,58.065,3753.62,58.065,2684.88,0.000575262,2.99381e-46,1002.49,7.34033,0.709393,0.126974
284.6,4497.3,285.231,4440.45,4413.17,56.8521,4470.02,56.8521,3400.41,0.000358984,4.33724e-47,1008.1,3.89691,0.638215,0.120084
284.5,5487.35,285.1307,5431.97,5454.55,55.3853,5509.93,55.3853,4445.09,0.000222195,6.15946e-48,1006.76,2.01115,0.579613,0.113751
284.4,7118.09,285.031,7064.5,7045.38,53.5956,7098.97,53.5956,6045.22,0.000136409,8.57458e-49,998.492,1.03073,0.530072,0.107916
284.3,9610.63,284.931,9559.36,9544.13,51.274,9595.4,51.274,8559.5,8.30623e-05,1.1701e-49,983.495,0.543637,0.487396,0.102526
284.2,13375,284.831,13326.8,13314.7,48.1393,13362.8,48.1393,12351.7,5.01665e-05,1.56521e-50,962.112,0.309638,0.450137,0.0975357
284.1,18367.7,284.731,18323.9,18198.9,43.7768,18242.6,43.7768,17263.3,3.0052e-05,2.05241e-51,934.826,0.198541,0.417287,0.0929071
284.0,22686.4,284.6307,22648.6,22778.9,37.7857,22816.7,37.7857,21876.1,1.7856e-05,2.63812e-52,902.238,0.144408,0.388103,0.088605
283.9,24547.9,284.531,24517.5,24604.2,30.3859,24634.6,30.3859,23738.6,1.05231e-05,3.32404e-53,865.048,0.115855,0.362019,0.0845991
283.8,22270.8,284.431,22248.4,22142.7,22.379,22165.1,22.379,21318.2,6.15111e-06,4.1056e-54,824.025,0.0987407,0.338584,0.0808623
283.7,16635.5,284.331,16620.4,16503.5,15.1148,16518.6,15.1148,15723,3.56626e-06,4.97082e-55,779.982,0.0869608,0.317434,0.0773708
283.6,10342.5,284.231,10332.8,10441.2,9.68876,10450.9,9.68876,9706.97,2.0508e-06,5.89957e-56,733.746,0.0779348,0.298269,0.0741034
283.5,5804.23,284.1307,5797.91,5931.17,6.31537,5937.49,6.31537,5244.61,1.16972e-06,6.8636e-57,686.134,0.0705532,0.28084,0.0710409
283.4,3243.96,284.031,3239.54,3275.57,4.42227,3279.99,4.42227,2637.24,6.6175e-07,7.82752e-58,637.929,0.0643008,0.264937,0.0681665
283.3,1945.26,283.931,1941.9,1897.88,3.36429,1901.25,3.36429,1307.65,3.71325e-07,8.75057e-59,589.855,0.0589036,0.250381,0.0654649
283.2,1346.9,283.831,1344.17,1203.24,2.72992,1205.97,2.72992,660.321,2.06664e-07,9.58934e-60,542.566,0.054191,0.237021,0.0629223
283.1,1006.21,283.731,1003.92,838.111,2.29072,840.402,2.29072,341.144,1.14084e-07,1.03011e-60,496.632,0.050043,0.224725,0.0605264
283.0,733.655,283.6307,731.693,631.583,1.96265,633.545,1.96265,178.735,6.24648e-08,1.08471e-61,452.529,0.0463684,0.213382,0.0582661
282.9,536.443,283.531,534.719,504.917,1.72349,506.641,1.72349,93.977,3.39231e-08,1.11966e-62,410.638,0.0430953,0.202893,0.0561311
282.8,412.779,283.431,411.23,420.71,1.54864,422.259,1.54864,49.1771,1.82728e-08,1.13293e-63,371.246,0.0401655,0.193173,0.0541124
282.7,312.8,283.331,311.386,360.278,1.41414,361.692,1.41414,25.4567,9.76263e-09,1.12371e-64,334.547,0.0375314,0.184148,0.0522015
282.6,268.618,283.231,267.306,313.893,1.31225,315.205,1.31225,12.9781,5.17342e-09,1.09257e-65,300.654,0.0351536,0.17575,0.0503909
282.5,224.312,283.1307,223.087,276.347,1.22477,277.572,1.22477,6.49427,2.71918e-09,1.04132e-66,269.603,0.0329992,0.167923,0.0486735
282.4,189.895,283.031,188.743,244.787,1.15174,245.939,1.15174,3.18156,1.41758e-09,9.72875e-68,241.367,0.0310404,0.160615,0.0470431
282.3,167.397,282.931,166.307,217.617,1.08994,218.707,1.08994,1.52282,7.3301e-10,8.90987e-69,215.865,0.029254,0.153781,0.0454939
282.2,159.858,282.831,158.822,193.905,1.03547,194.941,1.03547,0.710944,3.75942e-10,7.99883e-70,192.976,0.0276199,0.14738,0.0440204
282.1,125.259,282.731,124.276,173.077,0.983465,174.06,0.983465,0.323304,1.91241e-10,7.03917e-71,172.543,0.026121,0.141375,0.0426179
282.0,121.607,282.6307,120.664,154.738,0.942745,155.681,0.942745,0.143049,9.64923e-11,6.07234e-72,154.394,0.0247425,0.135735,0.0412818
281.9,116.942,282.531,116.039,138.594,0.903216,139.497,0.903216,0.0615235,4.82896e-11,5.1349e-73,138.339,0.0234718,0.130429,0.0400079
281.8,109.261,282.431,108.395,124.398,0.865209,125.264,0.865209,0.0256998,2.39698e-11,4.25645e-74,124.186,0.0222977,0.125432,0.0387924
281.7,92.5446,282.331,91.7149,111.934,0.829707,112.764,0.829707,0.0104195,1.18012e-11,3.45862e-75,111.744,0.0212106,0.12072,0.0376318
281.6,77.7843,282.231,76.9846,101.005,0.799658,101.805,0.799658,0.0040976,5.76285e-12,2.75486e-76,100.828,0.020202,0.116271,0.0365228
281.5,74.9993,282.1307,74.2249,91.4309,0.774423,92.2053,0.774423,0.00156225,2.79125e-12,2.15097e-77,91.2626,0.0192644,0.112066,0.0354624
281.4,84.2233,282.031,83.4732,83.0454,0.750097,83.7955,0.750097,0.00057718,1.34094e-12,1.64631e-78,82.8839,0.0183912,0.108087,0.0344477
281.3,62.4297,281.931,61.707,75.6987,0.722762,76.4214,0.722762,0.000206553,6.38956e-13,1.23517e-79,75.5431,0.0175767,0.104318,0.0334762
281.2,67.6127,281.831,66.9102,69.2553,0.702536,69.9579,0.702536,7.15745e-05,3.01983e-13,9.08417e-81,69.1052,0.0168156,0.100745,0.0325454
281.1,66.8019,281.731,66.1213,63.5949,0.680619,64.2755,0.680619,2.40076e-05,1.41561e-13,6.54911e-82,63.4498,0.0161033,0.0973539,0.0316531
281.0,52.9704,281.6307,52.3115,58.611,0.658967,59.2699,0.658967,7.79251e-06,6.58196e-14,4.62828e-83,58.4706,0.0154356,0.0941325,0.0307972
280.9,50.1155,281.531,49.4737,54.2104,0.641826,54.8523,0.641826,2.447e-06,3.03541e-14,3.20625e-84,54.0746,0.014809,0.0910697,0.0299756
280.8,56.2652,281.431,55.6396,50.3125,0.625616,50.9381,0.625616,7.43214e-07,1.38844e-14,2.17728e-85,50.181,0.0142201,0.0881551,0.0291867
280.7,47.4111,281.331,46.8037,46.8475,0.607401,47.4549,0.607401,2.18287e-07,6.29927e-15,1.44935e-86,46.72,0.0136659,0.0853792,0.0284286
280.6,39.5335,281.231,38.9414,43.7555,0.592073,44.3476,0.592073,6.19856e-08,2.83467e-15,9.45739e-88,43.6319,0.0131437,0.0827334,0.0276998
280.5,32.635,281.1307,32.0557,40.9855,0.579315,41.5648,0.579315,1.70148e-08,1.26521e-15,6.04936e-89,40.8656,0.012651,0.0802095,0.0269988
280.4,32.727,281.031,32.1582,38.4939,0.568807,39.0627,0.568807,4.51406e-09,5.60113e-16,3.79305e-90,38.3776,0.0121857,0.0778002,0.0263242
280.3,31.8179,280.931,31.2596,36.2437,0.55827,36.802,0.55827,1.1573e-09,2.45945e-16,2.33135e-91,36.1308,0.0117458,0.0754985,0.0256747
280.2,24.8977,280.831,24.3496,34.2036,0.548028,34.7516,0.548028,2.86685e-10,1.07115e-16,1.40464e-92,34.0939,0.0113294,0.0732981,0.0250489
280.1,31.9777,280.731,31.4377,32.3468,0.540044,32.8869,0.540044,6.86098e-11,4.62713e-17,8.29594e-94,32.2403,0.0109349,0.0711931,0.0244459
280.0,33.0693,280.6307,32.5395,30.6508,0.529751,31.1806,0.529751,1.5863e-11,1.98255e-17,4.80292e-95,30.5472,0.0105608,0.069178,0.0238645
279.9,13.1343,280.531,12.6152,29.0964,0.519101,29.6155,0.519101,3.54471e-12,8.42531e-18,2.72574e-96,28.9956,0.0102056,0.0672478,0.0233036
279.8,19.1797,280.431,18.6648,27.6669,0.514954,28.1819,0.514954,7.64419e-13,3.55139e-18,1.51637e-97,27.5689,0.0098682,0.0653977,0.0227624
279.7,29.2479,280.331,28.7391,26.3486,0.508835,26.8574,0.508835,1.58778e-13,1.48477e-18,8.26923e-99,26.2531,0.00954731,0.0636233,0.0222398
279.6,14.3092,280.231,13.8098,25.1291,0.499432,25.6286,0.499432,3.15284e-14,6.15705e-19,4.42044e-100,25.0362,0.00924189,0.0619205,0.0217351
279.5,15.3509,280.1307,14.856,23.9983,0.494902,24.4932,0.494902,6.01694e-15,2.53242e-19,2.31636e-101,23.9078,0.00895097,0.0602856,0.0212474
279.4,9.38575,280.031,8.89572,22.9471,0.490032,23.4371,0.490032,0.0,1.03311e-19,1.18983e-102,22.8589,0.00867363,0.0587149,0.020776
279.3,23.4319,279.931,22.9448,21.9676,0.487108,22.4547,0.487108,0.0,4.18033e-20,5.99111e-104,21.8817,0.00840905,0.057205,0.0203202
279.2,12.4825,279.831,12.0029,21.0531,0.479602,21.5327,0.479602,0.0,1.67773e-20,2.95712e-105,20.9693,0.00815643,0.055753,0.0198793
279.1,16.5233,279.731,16.0476,20.1975,0.475667,20.6732,0.475667,0.0,6.6786e-21,1.43077e-106,20.1158,0.00791508,0.0543558,0.0194526
279.0,5.55436,279.6307,5.08395,19.3957,0.470415,19.8661,0.470415,0.0,2.63693e-21,6.78597e-108,19.316,0.00768433,0.0530107,0.0190395
278.9,10.5771,279.531,10.1083,18.6429,0.46874,19.1117,0.46874,0.0,1.03267e-21,3.15496e-109,18.5651,0.00746356,0.0517151,0.0186395
278.8,0.592783,279.431,0.127355,17.9351,0.465427,18.4005,0.465427,0.0,4.01119e-22,1.43786e-110,17.8591,0.00725221,0.0504667,0.018252
278.7,6.60291,279.331,6.13754,17.2685,0.465371,17.7339,0.465371,0.0,1.54538e-22,6.4236e-112,17.1943,0.00704974,0.0492631,0.0178765
278.6,4.6187,279.231,4.15535,16.6399,0.463355,17.1032,0.463355,0.0,5.9054e-23,2.81307e-113,16.5674,0.00685567,0.0481022,0.0175125
278.5,6.63454,279.1307,6.17255,16.0462,0.461985,16.5082,0.461985,0.0,2.23827e-23,1.2076e-114,15.9754,0.00666952,0.0469821,0.0171595
278.4,4.65042,279.031,4.19046,15.4849,0.459958,15.9449,0.459958,0.0,8.41444e-24,5.08167e-116,15.4157,0.00649088,0.0459008,0.0168171
278.3,6.66634,278.931,6.20777,14.9535,0.458579,15.4121,0.458579,0.0,3.13753e-24,2.09619e-117,14.8859,0.00631935,0.0448565,0.0164849
278.2,12.6936,278.831,12.237,14.4499,0.456541,14.9065,0.456541,0.0,1.16038e-24,8.47604e-119,14.3838,0.00615455,0.0438476,0.0161625
278.1,0.712455,278.731,0.259917,13.9721,0.452538,14.4247,0.452538,0.0,4.25661e-25,3.35967e-120,13.9074,0.00599614,0.0428725,0.0158494
278.0,5.72151,278.6307,5.26907,13.5183,0.452443,13.9708,0.452443,0.0,1.54874e-25,1.30539e-121,13.455,0.00584378,0.0419297,0.0155454
277.9,12.7475,278.531,12.2968,13.0869,0.450714,13.5377,0.450714,0.0,5.58909e-26,4.97193e-123,13.025,0.00569717,0.0410177,0.0152501
277.8,14.7862,278.431,14.3396,12.6764,0.446693,13.1231,0.446693,0.0,2.00057e-26,1.8563e-124,12.6158,0.00555603,0.0401353,0.0149631
277.7,15.8293,278.331,15.3873,12.2854,0.442007,12.7274,0.442007,0.0,7.1026e-27,6.79381e-126,12.226,0.00542008,0.0392811,0.0146841
277.6,15.8739,278.231,15.437,11.9127,0.436981,12.3497,0.436981,0.0,2.5011e-27,2.43735e-127,11.8545,0.00528907,0.038454,0.0144129
277.5,18.9229,278.1307,18.491,11.5571,0.43194,11.989,0.43194,0.0,8.73564e-28,8.57163e-129,11.5001,0.00516277,0.0376528,0.0141492
277.4,8.96216,278.031,8.53625,11.2175,0.425905,11.6434,0.425905,0.0,3.02627e-28,2.95494e-130,11.1617,0.00504096,0.0368765,0.0138927
277.3,0.976145,277.931,0.553027,10.893,0.423119,11.3162,0.423119,0.0,1.03985e-28,9.98559e-132,10.8383,0.00492341,0.036124,0.013643
277.2,6.98735,277.831,6.56441,10.5827,0.422937,11.0057,0.422937,0.0,3.54393e-29,3.3078e-133,10.5291,0.00480994,0.0353944,0.0134001
277.1,2.0,277.731,1.5792,10.2858,0.420795,10.7066,0.420795,0.0,1.19798e-29,1.0741e-134,10.2333,0.00470036,0.0346868,0.0131636
277.0,0.0,277.6307,-0.42028,10.0014,0.42028,10.4217,0.42028,0.0,4.01664e-30,3.41894e-136,9.94991,0.00459448,0.0340002,0.0129333