File: XPS/LG4X-result/UT-O1s.csv
#No of rows lightened (2D detector)1(if not using 2D detector, value is 1 and can be ignored!),,,,,,,
raw_x,raw_y,corrected x,data-bg,sum_components,bg,sum_fit,bg_shirley_,C-O
540,7866,540.6485,-135.607,13.1956,8001.61,8014.8,8001.61,13.1956
539.9,7990,540.5485,-11.6042,13.5503,8001.6,8015.15,8001.6,13.5503
539.8,8033,540.4485,31.531,13.9196,8001.47,8015.39,8001.47,13.9196
539.7,8043,540.3485,41.7121,14.3045,8001.29,8015.59,8001.29,14.3045
539.6,8037,540.2485,35.9037,14.7057,8001.1,8015.8,8001.1,14.7057
539.5,8102,540.1485,101.089,15.1244,8000.91,8016.04,8000.91,15.1244
539.4,7958,540.0485,-42.6565,15.5614,8000.66,8016.22,8000.66,15.5614
539.3,8052,539.9485,51.4446,16.018,8000.56,8016.57,8000.56,16.018
539.2,7982,539.8485,-18.3541,16.4953,8000.35,8016.85,8000.35,16.4953
539.1,8066,539.7485,65.7726,16.9947,8000.23,8017.22,8000.23,16.9947
539,8056,539.6485,55.9888,17.5174,8000.01,8017.53,8000.01,17.5174
538.9,8042,539.5485,42.1943,18.0651,7999.81,8017.87,7999.81,18.0651
538.8,7910,539.4485,-89.6151,18.6394,7999.62,8018.25,7999.62,18.6394
538.7,8026,539.3485,26.435,19.2421,7999.57,8018.81,7999.57,19.2421
538.6,7940,539.2485,-59.3915,19.8751,7999.39,8019.27,7999.39,19.8751
538.5,8118,539.1485,118.691,20.5405,7999.31,8019.85,7999.31,20.5405
538.4,8021,539.0485,21.962,21.2407,7999.04,8020.28,7999.04,21.2407
538.3,8000,538.9485,1.13028,21.9782,7998.87,8020.85,7998.87,21.9782
538.2,7835,538.8485,-163.724,22.7556,7998.72,8021.48,7998.72,22.7556
538.1,8092,538.7485,93.2464,23.5762,7998.75,8022.33,7998.75,23.5762
538,8061,538.6485,62.4902,24.4431,7998.51,8022.95,7998.51,24.4431
537.9,8036,538.5485,37.7011,25.3601,7998.3,8023.66,7998.3,25.3601
537.8,7957,538.4485,-41.1147,26.3312,7998.11,8024.45,7998.11,26.3312
537.7,8093,538.3485,94.9854,27.361,7998.01,8025.38,7998.01,27.361
537.6,8099,538.2485,101.23,28.4543,7997.77,8026.22,7997.77,28.4543
537.5,7938,538.1485,-59.5184,29.6169,7997.52,8027.14,7997.52,29.6169
537.4,7976,538.0485,-21.4385,30.8548,7997.44,8028.29,7997.44,30.8548
537.3,8060,537.9485,62.6818,32.175,7997.32,8029.49,7997.32,32.175
537.2,8048,537.8485,50.8916,33.5854,7997.11,8030.69,7997.11,33.5854
537.1,8148,537.7485,151.089,35.0948,7996.91,8032.01,7996.91,35.0948
537,7977,537.6485,-19.608,36.7133,7996.61,8033.32,7996.61,36.7133
536.9,7949,537.5485,-47.4866,38.4522,7996.49,8034.94,7996.49,38.4522
536.8,7945,537.4485,-51.395,40.3248,7996.4,8036.72,7996.4,40.3248
536.7,7930,537.3485,-66.3077,42.3462,7996.31,8038.65,7996.31,42.3462
536.6,8015,537.2485,18.7637,44.5341,7996.24,8040.77,7996.24,44.5341
536.5,8218,537.1485,221.926,46.9092,7996.07,8042.98,7996.07,46.9092
536.4,8033,537.0485,37.3035,49.496,7995.7,8045.19,7995.7,49.496
536.3,8115,536.9485,119.485,52.3239,7995.52,8047.84,7995.52,52.3239
536.2,8034,536.8485,38.7528,55.4283,7995.25,8050.68,7995.25,55.4283
536.1,7961,536.7485,-34.0651,58.8527,7995.07,8053.92,7995.07,58.8527
536,7961,536.6485,-33.9607,62.6507,7994.96,8057.61,7994.96,62.6507
535.9,8026,536.5485,31.1437,66.8893,7994.86,8061.75,7994.86,66.8893
535.8,8006,536.4485,11.3172,71.653,7994.68,8066.34,7994.68,71.653
535.7,8139,536.3485,144.47,77.0494,7994.53,8071.58,7994.53,77.0494
535.6,8110,536.2485,115.763,83.2159,7994.24,8077.45,7994.24,83.2159
535.5,8129,536.1485,135.026,90.329,7993.97,8084.3,7993.97,90.329
535.4,8128,536.0485,134.31,98.6158,7993.69,8092.31,7993.69,98.6158
535.3,8106,535.9485,112.592,108.368,7993.41,8101.78,7993.41,108.368
535.2,8308,535.8485,314.85,119.957,7993.15,8113.11,7993.15,119.957
535.1,8230,535.7485,237.324,133.858,7992.68,8126.53,7992.68,133.858
535,8245,535.6485,252.715,150.668,7992.29,8142.95,7992.29,150.668
534.9,8225,535.5485,233.122,171.132,7991.88,8163.01,7991.88,171.132
534.8,8186,535.4485,194.507,196.166,7991.49,8187.66,7991.49,196.166
534.7,8271,535.3485,279.851,226.883,7991.15,8218.03,7991.15,226.883
534.6,8202,535.2485,211.285,264.608,7990.71,8255.32,7990.71,264.608
534.5,8367,535.1485,376.646,310.893,7990.35,8301.25,7990.35,310.893
534.4,8397,535.0485,407.183,367.511,7989.82,8357.33,7989.82,367.511
534.3,8313,534.9485,323.751,436.437,7989.25,8425.69,7989.25,436.437
534.2,8483,534.8485,494.23,519.81,7988.77,8508.58,7988.77,519.81
534.1,8522,534.7485,533.89,619.861,7988.11,8607.97,7988.11,619.861
534,8699,534.6485,711.592,738.814,7987.41,8726.22,7987.41,738.814
533.9,8858,534.5485,871.482,878.76,7986.52,8865.28,7986.52,878.76
533.8,9084,534.4485,1098.54,1041.49,7985.46,9026.95,7985.46,1041.49
533.7,9327,534.3485,1342.84,1228.33,7984.16,9212.49,7984.16,1228.33
533.6,9296,534.2485,1313.4,1439.9,7982.6,9422.5,7982.6,1439.9
533.5,9703,534.1485,1721.93,1675.97,7981.07,9657.05,7981.07,1675.97
533.4,9786,534.0485,1806.88,1935.23,7979.12,9914.35,7979.12,1935.23
533.3,10145,533.9485,2167.93,2215.15,7977.07,10192.2,7977.07,2215.15
533.2,10565,533.8485,2590.36,2511.89,7974.64,10486.5,7974.64,2511.89
533.1,10783,533.7485,2811.24,2820.29,7971.76,10792.1,7971.76,2820.29
533,11039,533.6485,3070.35,3133.9,7968.65,11102.6,7968.65,3133.9
532.9,11416,533.5485,3450.73,3445.19,7965.27,11410.5,7965.27,3445.19
532.8,11764,533.4485,3802.51,3745.79,7961.49,11707.3,7961.49,3745.79
532.7,12061,533.3485,4103.66,4026.84,7957.34,11984.2,7957.34,4026.84
532.6,12379,533.2485,4426.13,4279.43,7952.87,12232.3,7952.87,4279.43
532.5,12508,533.1485,4559.94,4495.1,7948.06,12443.2,7948.06,4495.1
532.4,12490,533.0485,4546.88,4666.25,7943.12,12609.4,7943.12,4666.25
532.3,12735,532.9485,4796.81,4786.65,7938.19,12724.8,7938.19,4786.65
532.2,12807,532.8485,4873.99,4851.82,7933.01,12784.8,7933.01,4851.82
532.1,12822,532.7485,4894.26,4859.29,7927.74,12787,7927.74,4859.29
532,12624,532.6485,4701.54,4808.78,7922.46,12731.2,7922.46,4808.78
531.9,12544,532.5485,4626.61,4702.19,7917.39,12619.6,7917.39,4702.19
531.8,12428,532.4485,4515.59,4543.53,7912.41,12455.9,7912.41,4543.53
531.7,12182,532.3485,4274.45,4338.61,7907.55,12246.2,7907.55,4338.61
531.6,11909,532.2485,4006.05,4094.71,7902.95,11997.7,7902.95,4094.71
531.5,11663,532.1485,3764.35,3820.12,7898.65,11718.8,7898.65,3820.12
531.4,11479,532.0485,3584.4,3523.68,7894.6,11418.3,7894.6,3523.68
531.3,11242,531.9485,3351.25,3214.31,7890.75,11105.1,7890.75,3214.31
531.2,10875,531.8485,2987.85,2900.54,7887.15,10787.7,7887.15,2900.54
531.1,10403,531.7485,2519.05,2590.14,7883.95,10474.1,7883.95,2590.14
531,10279,531.6485,2397.76,2289.86,7881.24,10171.1,7881.24,2289.86
530.9,9998,531.5485,2119.33,2005.21,7878.67,9883.88,7878.67,2005.21
530.8,9588,531.4485,1711.6,1740.36,7876.4,9616.76,7876.4,1740.36
530.7,9348,531.3485,1473.44,1498.16,7874.56,9372.73,7874.56,1498.16
530.6,9219,531.2485,1346.02,1280.24,7872.98,9153.23,7872.98,1280.24
530.5,8928,531.1485,1056.46,1087.09,7871.54,8958.63,7871.54,1087.09
530.4,8717,531.0485,846.595,918.275,7870.41,8788.68,7870.41,918.275
530.3,8471,530.9485,601.504,772.638,7869.5,8642.13,7869.5,772.638
530.2,8533,530.8485,664.151,648.49,7868.85,8517.34,7868.85,648.49
530.1,8425,530.7485,556.865,543.799,7868.14,8411.93,7868.14,543.799
530,8363,530.6485,495.463,456.362,7867.54,8323.9,7867.54,456.362
529.9,8284,530.5485,416.995,383.938,7867,8250.94,7867,383.938
529.8,8203,530.4485,336.443,324.358,7866.56,8190.91,7866.56,324.358
529.7,8041,530.3485,174.805,275.6,7866.19,8141.79,7866.19,275.6
529.6,7997,530.2485,130.995,235.835,7866.01,8101.84,7866.01,235.835
529.5,8171,530.1485,305.138,203.455,7865.86,8069.32,7865.86,203.455
529.4,7961,530.0485,95.4656,177.078,7865.53,8042.61,7865.53,177.078
529.3,7992,529.9485,126.57,155.536,7865.43,8020.97,7865.43,155.536
529.2,8002,529.8485,136.707,137.867,7865.29,8003.16,7865.29,137.867
529.1,8047,529.7485,181.855,123.282,7865.14,7988.43,7865.14,123.282
529,7930,529.6485,65.0513,111.149,7864.95,7976.1,7864.95,111.149
528.9,7964,529.5485,99.1226,100.965,7864.88,7965.84,7864.88,100.965
528.8,7886,529.4485,21.2302,92.3327,7864.77,7957.1,7864.77,92.3327
528.7,7992,529.3485,127.255,84.9424,7864.75,7949.69,7864.75,84.9424
528.6,7991,529.2485,126.392,78.5517,7864.61,7943.16,7864.61,78.5517
528.5,7972,529.1485,107.528,72.9723,7864.47,7937.44,7864.47,72.9723
528.4,7961,529.0485,96.6445,68.0576,7864.36,7932.41,7864.36,68.0576
528.3,7876,528.9485,11.7489,63.6931,7864.25,7927.94,7864.25,63.6931
528.2,7809,528.8485,-55.2372,59.7891,7864.24,7924.03,7864.24,59.7891
528.1,7868,528.7485,3.70532,56.2744,7864.29,7920.57,7864.29,56.2744
528,7964,528.6485,99.7107,53.0924,7864.29,7917.38,7864.29,53.0924
527.9,7917,528.5485,52.8183,50.1972,7864.18,7914.38,7864.18,50.1972
527.8,7834,528.4485,-30.1242,47.5516,7864.12,7911.68,7864.12,47.5516
527.7,7890,528.3485,25.845,45.1247,7864.16,7909.28,7864.16,45.1247
527.6,7921,528.2485,56.8738,42.8909,7864.13,7907.02,7864.13,42.8909
527.5,7970,528.1485,105.936,40.8286,7864.06,7904.89,7864.06,40.8286
527.4,8051,528.0485,187.049,38.9193,7863.95,7902.87,7863.95,38.9193
527.3,8051,527.9485,187.25,37.1474,7863.75,7900.9,7863.75,37.1474
527.2,7970,527.8485,106.45,35.4992,7863.55,7899.05,7863.55,35.4992
527.1,7896,527.7485,32.5638,33.9628,7863.44,7897.4,7863.44,33.9628
527,7855,527.6485,-8.40101,32.5279,7863.4,7895.93,7863.4,32.5279
526.9,8041,527.5485,177.591,31.1853,7863.41,7894.59,7863.41,31.1853
526.8,7969,527.4485,105.78,29.927,7863.22,7893.15,7863.22,29.927
526.7,7824,527.3485,-39.1071,28.7458,7863.11,7891.85,7863.11,28.7458
526.6,7820,527.2485,-43.1485,27.6352,7863.15,7890.78,7863.15,27.6352
526.5,7902,527.1485,38.8057,26.5896,7863.19,7889.78,7863.19,26.5896
526.4,7922,527.0485,58.8473,25.6039,7863.15,7888.76,7863.15,25.6039
526.3,8022,526.9485,158.91,24.6734,7863.09,7887.76,7863.09,24.6734
526.2,7966,526.8485,103.079,23.794,7862.92,7886.71,7862.92,23.794
526.1,7860,526.7485,-2.81083,22.9619,7862.81,7885.77,7862.81,22.9619
526,7892,526.6485,29.186,22.1737,7862.81,7884.99,7862.81,22.1737
525.9,7943,526.5485,80.2169,21.4263,7862.78,7884.21,7862.78,21.4263
525.8,7904,526.4485,41.3022,20.7168,7862.7,7883.41,7862.7,20.7168
525.7,7833,526.3485,-29.6541,20.0427,7862.65,7882.7,7862.65,20.0427
525.6,7725,526.2485,-137.686,19.4015,7862.69,7882.09,7862.69,19.4015
525.5,7722,526.1485,-140.833,18.7913,7862.83,7881.62,7862.83,18.7913
525.4,7907,526.0485,44.0171,18.2099,7862.98,7881.19,7862.98,18.2099
525.3,7891,525.9485,28.0639,17.6555,7862.94,7880.59,7862.94,17.6555
525.2,7872,525.8485,9.0938,17.1265,7862.91,7880.03,7862.91,17.1265
525.1,7833,525.7485,-29.8966,16.6213,7862.9,7879.52,7862.9,16.6213
525,7838,525.6485,-24.9285,16.1384,7862.93,7879.07,7862.93,16.1384