File: XPS/HT-C1s.csv
#No of rows lightened (2D detector)1(if not using 2D detector, value is 1 and can be ignored!)
x,raw_y,data-bg,sum_components,bg,sum_fit,bg_shirley_,a1,v2,v3
299.5,852.0,96.8913,169.224,755.109,924.333,755.109,21.8918,21.0697,126.263
299.4,905.0,151.62,174.712,753.38,928.092,753.38,22.2894,21.5188,130.904
299.3,922.0,170.457,180.468,751.543,932.011,751.543,22.698,21.9823,135.788
299.2,882.0,132.328,186.509,749.672,936.181,749.672,23.1178,22.4609,140.93
299.1,925.0,177.118,192.851,747.882,940.733,747.882,23.5495,22.9551,146.347
299.0,968.0,221.995,199.515,746.005,945.52,746.005,23.9933,23.4657,152.056
298.9,950.0,205.96,206.52,744.04,950.561,744.04,24.4499,23.9934,158.077
298.8,951.0,208.888,213.889,742.112,956.001,742.112,24.9195,24.5389,164.431
298.7,951.0,210.817,221.644,740.183,961.827,740.183,25.4029,25.1031,171.139
298.6,995.0,256.747,229.811,738.253,968.064,738.253,25.9004,25.6868,178.224
298.5,986.0,249.767,238.416,736.233,974.65,736.233,26.4127,26.2909,185.713
298.4,1000.0,265.768,247.487,734.232,981.719,734.232,26.9403,26.9164,193.63
298.3,1008.0,275.797,257.054,732.203,989.257,732.203,27.484,27.5643,202.005
298.2,1027.0,296.843,267.148,730.157,997.305,730.157,28.0442,28.2357,210.868
298.1,1047.0,318.927,277.802,728.073,1005.88,728.073,28.6217,28.9316,220.249
298.0,1024.0,298.052,289.052,725.948,1015,725.948,29.2173,29.6534,230.182
297.9,999.0,275.13,300.935,723.87,1024.81,723.87,29.8317,30.4022,240.701
297.8,1047.0,325.157,313.488,721.843,1035.33,721.843,30.4656,31.1794,251.843
297.7,1084.0,364.282,326.75,719.718,1046.47,719.718,31.12,31.9865,263.644
297.6,1018.0,300.482,340.762,717.518,1058.28,717.518,31.7957,32.825,276.142
297.5,1048.0,332.548,355.565,715.452,1071.02,715.452,32.4936,33.6965,289.375
297.4,1083.0,369.674,371.199,713.326,1084.52,713.326,33.2148,34.6029,303.381
297.3,1067.0,355.872,387.703,711.128,1098.83,711.128,33.9602,35.5458,318.197
297.2,1076.0,367.038,405.116,708.962,1114.08,708.962,34.731,36.5273,333.858
297.1,1120.0,413.221,423.471,706.779,1130.25,706.779,35.5284,37.5495,350.393
297.0,1133.0,428.494,442.798,704.506,1147.3,704.506,36.3536,38.6147,367.83
296.9,1123.0,420.793,463.119,702.207,1165.33,702.207,37.2078,39.7253,386.186
296.8,1137.0,437.072,484.447,699.928,1184.37,699.928,38.0925,40.8838,405.471
296.7,1151.0,453.38,506.784,697.62,1204.4,697.62,39.0092,42.093,425.682
296.6,1203.0,507.716,530.114,695.284,1225.4,695.284,39.9593,43.3558,446.799
296.5,1256.0,563.157,554.405,692.843,1247.25,692.843,40.9446,44.6755,468.785
296.4,1269.0,578.706,579.598,690.294,1269.89,690.294,41.9667,46.0554,491.576
296.3,1262.0,574.281,605.61,687.719,1293.33,687.719,43.0277,47.4992,515.083
296.2,1273.0,587.842,632.323,685.158,1317.48,685.158,44.1293,49.0108,539.183
296.1,1384.0,701.426,659.583,682.574,1342.16,682.574,45.2739,50.5945,563.715
296.0,1380.0,700.234,687.196,679.766,1366.96,679.766,46.4635,52.2548,588.478
295.9,1443.0,766.035,714.925,676.965,1391.89,676.965,47.7007,53.9967,613.228
295.8,1427.0,752.963,742.489,674.037,1416.53,674.037,48.9879,55.8254,637.675
295.7,1474.0,802.859,769.564,671.141,1440.7,671.141,50.328,57.7468,661.489
295.6,1550.0,881.851,795.79,668.149,1463.94,668.149,51.7238,59.7671,684.3
295.5,1565.0,899.996,820.778,665.004,1485.78,665.004,53.1786,61.893,705.706
295.4,1571.0,909.172,844.118,661.828,1505.95,661.828,54.6955,64.1317,725.291
295.3,1607.0,948.36,865.405,658.64,1524.04,658.64,56.2783,66.4914,742.635
295.2,1556.0,900.622,884.246,655.378,1539.62,655.378,57.9309,68.9805,757.334
295.1,1561.0,908.779,900.291,652.221,1552.51,652.221,59.6573,71.6086,769.025
295.0,1574.0,924.947,913.247,649.053,1562.3,649.053,61.462,74.3857,777.399
294.9,1634.0,988.141,922.903,645.859,1568.76,645.859,63.3499,77.3232,782.23
294.8,1509.0,866.457,929.142,642.543,1571.68,642.543,65.3262,80.4332,783.383
294.7,1566.0,926.52,931.949,639.48,1571.43,639.48,67.3964,83.729,780.824
294.6,1516.0,879.698,931.417,636.302,1567.72,636.302,69.5666,87.2252,774.625
294.5,1468.0,834.774,927.741,633.226,1560.97,633.226,71.8434,90.9379,764.96
294.4,1510.0,879.753,921.205,630.247,1551.45,630.247,74.2337,94.8845,752.087
294.3,1481.0,853.818,912.168,627.182,1539.35,627.182,76.7455,99.0845,736.338
294.2,1479.0,854.823,901.04,624.177,1525.22,624.177,79.3868,103.559,718.094
294.1,1493.0,871.825,888.266,621.175,1509.44,621.175,82.167,108.332,697.767
294.0,1516.0,897.855,874.303,618.145,1492.45,618.145,85.0958,113.428,675.779
293.9,1449.0,833.931,859.602,615.069,1474.67,615.069,88.1841,118.876,652.542
293.8,1399.0,786.872,844.598,612.128,1456.73,612.128,91.4436,124.709,628.446
293.7,1374.0,764.711,829.693,609.289,1438.98,609.289,94.8872,130.96,603.846
293.6,1419.0,812.499,815.257,606.501,1421.76,606.501,98.5291,137.668,579.06
293.5,1392.0,788.379,801.62,603.621,1405.24,603.621,102.385,144.877,554.358
293.4,1409.0,808.204,789.074,600.796,1389.87,600.796,106.471,152.634,529.969
293.3,1399.0,801.063,777.876,597.937,1375.81,597.937,110.808,160.991,506.078
293.2,1372.0,776.902,768.251,595.098,1363.35,595.098,115.414,170.007,482.83
293.1,1348.0,755.687,760.398,592.313,1352.71,592.313,120.314,179.749,460.335
293.0,1410.0,820.422,754.494,589.578,1344.07,589.578,125.533,190.287,438.673
292.9,1341.0,754.284,750.7,586.716,1337.42,586.716,131.099,201.704,417.897
292.8,1348.0,764.005,749.169,583.995,1333.16,583.995,137.044,214.088,398.036
292.7,1349.0,767.741,750.046,581.259,1331.31,581.259,143.402,227.539,379.105
292.6,1361.0,782.478,753.48,578.522,1332,578.522,150.214,242.167,361.099
292.5,1391.0,815.24,759.623,575.76,1335.38,575.76,157.523,258.092,344.008
292.4,1390.0,817.063,768.634,572.937,1341.57,572.937,165.378,275.448,327.808
292.3,1430.0,859.884,780.688,570.116,1350.8,570.116,173.836,294.379,312.472
292.2,1418.0,850.786,795.972,567.214,1363.19,567.214,182.96,315.043,297.968
292.1,1473.0,908.664,814.689,564.336,1379.03,564.336,192.822,337.607,284.26
292.0,1495.0,933.653,837.062,561.347,1398.41,561.347,203.503,362.248,271.31
291.9,1450.0,891.687,863.326,558.313,1421.64,558.313,215.097,389.148,259.081
291.8,1474.0,918.63,893.732,555.37,1449.1,555.37,227.71,418.487,247.535
291.7,1516.0,963.621,928.536,552.379,1480.92,552.379,241.464,450.438,236.634
291.6,1550.0,1000.7,967.991,549.302,1517.29,549.302,256.502,485.147,226.342
291.5,1605.0,1058.84,1012.33,546.157,1558.49,546.157,272.987,522.722,216.622
291.4,1617.0,1074.1,1061.76,542.9,1604.66,542.9,291.109,563.204,207.442
291.3,1599.0,1059.38,1116.39,539.618,1656.01,539.618,311.09,606.534,198.769
291.2,1709.0,1172.63,1176.27,536.373,1712.65,536.373,333.189,652.515,190.571
291.1,1758.0,1225.1,1241.29,532.905,1774.2,532.905,357.71,700.763,182.819
291.0,1834.0,1304.66,1311.16,529.337,1840.5,529.337,385.012,750.66,175.487
290.9,1905.0,1379.38,1385.37,525.615,1910.99,525.615,415.522,801.302,168.548
290.8,1962.0,1440.25,1463.19,521.749,1984.94,521.749,449.743,851.469,161.977
290.7,1922.0,1404.23,1543.66,517.768,2061.43,517.768,488.282,899.624,155.752
290.6,2068.0,1554.13,1625.67,513.867,2139.54,513.867,531.864,943.954,149.852
290.5,2176.0,1666.33,1708.1,509.67,2217.77,509.67,581.369,982.479,144.256
290.4,2237.0,1731.75,1790.03,505.255,2295.28,505.255,637.866,1013.21,138.946
290.3,2329.0,1828.29,1870.97,500.715,2371.69,500.715,702.671,1034.4,133.904
290.2,2507.0,2011.01,1951.25,495.988,2447.24,495.988,777.417,1044.72,129.114
290.1,2527.0,2036.1,2032.22,490.901,2523.12,490.901,864.153,1043.51,124.56
290.0,2641.0,2155.23,2116.56,485.772,2602.33,485.772,965.488,1030.84,120.229
289.9,2727.0,2246.59,2208.44,480.413,2688.85,480.413,1084.79,1007.54,116.108
289.8,2895.0,2420.12,2313.72,474.879,2788.6,474.879,1226.52,975.02,112.183
289.7,2970.0,2501,2440.19,469.004,2909.2,469.004,1396.63,935.117,108.444
289.6,3122.0,2659.02,2598.08,462.976,3061.06,462.976,1603.37,889.829,104.879
289.5,3313.0,2856.36,2801.01,456.641,3257.65,456.641,1858.42,841.113,101.478
289.4,3582.0,3132.08,3067.78,449.917,3517.7,449.917,2178.82,790.73,98.2327
289.3,3810.0,3367.35,3425.73,442.648,3868.38,442.648,2590.45,740.154,95.1335
289.2,4280.0,3845.08,3916.92,434.916,4351.84,434.916,3134.21,690.536,92.1723
289.1,5053.0,4626.77,4610.03,426.23,5036.26,426.23,3877.97,642.718,89.3415
289.0,5912.0,5496.02,5624.15,415.976,6040.13,415.976,4940.25,597.266,86.6339
288.9,7443.0,7039.02,7175.61,403.978,7579.58,403.978,6537.04,554.519,84.0426
288.8,10357.0,9968.13,9653.27,388.873,10042.1,388.873,9057.07,514.643,81.5616
288.7,14370.0,14002.1,13638.9,367.855,14006.8,367.855,13082.1,477.672,79.1847
288.6,19862.0,19523.3,19496.8,338.693,19835.5,338.693,18976.3,443.548,76.9066
288.5,25946.0,25647.6,26112.4,298.385,26410.8,298.385,25625.5,412.156,74.7221
288.4,29840.0,29594.3,30061.4,245.73,30307.1,245.73,29605.4,383.34,72.6262
288.3,28438.0,28252.8,28122.7,185.173,28307.9,185.173,27695.2,356.927,70.6144
288.2,22021.0,21893.5,21240.9,127.462,21368.4,127.462,20839.5,332.734,68.6825
288.1,13932.0,13849.2,13551,82.7726,13633.8,82.7726,13173.6,310.581,66.8264
288.0,7796.0,7741.5,7930.83,54.4992,7985.33,54.4992,7575.5,290.292,65.0423
287.9,4350.0,4311.32,4632.17,38.6781,4670.85,38.6781,4297.15,271.702,63.3266
287.8,2621.0,2591.15,2836.16,29.8503,2866.01,29.8503,2519.83,254.656,61.6761
287.7,1774.0,1749.47,1841.62,24.5312,1866.15,24.5312,1542.52,239.012,60.0875
287.6,1309.0,1288.07,1261.79,20.9311,1282.72,20.9311,978.593,224.64,58.5579
287.5,1007.0,988.725,905.659,18.2746,923.934,18.2746,637.155,211.42,57.0844
287.4,780.0,763.769,677.278,16.231,693.509,16.231,422.368,199.245,55.6645
287.3,627.0,612.352,525.68,14.6481,540.328,14.6481,283.365,188.019,54.2957
287.2,508.0,494.624,422.178,13.3757,435.554,13.3757,191.55,177.653,52.9755
287.1,388.0,375.655,349.797,12.3448,362.141,12.3448,130.026,168.069,51.7018
287.0,324.0,312.443,298.068,11.5574,309.626,11.5574,88.4013,159.195,50.4724
286.9,299.0,288.1,260.324,10.8998,271.224,10.8998,60.0712,150.968,49.2854
286.8,245.0,234.707,232.2,10.2931,242.493,10.2931,40.7316,143.33,48.1389
286.7,220.0,210.204,210.781,9.79585,220.577,9.79585,27.5209,136.229,47.0312
286.6,200.0,190.651,194.088,9.34939,203.438,9.34939,18.5084,129.619,45.9604
286.5,184.0,175.056,180.761,8.94351,189.705,8.94351,12.3777,123.459,44.9251
286.4,166.0,157.43,169.858,8.5701,178.428,8.5701,8.22478,117.709,43.9236
286.3,161.0,152.767,160.718,8.23322,168.951,8.23322,5.42655,112.337,42.9547
286.2,170.0,162.094,152.88,7.90649,160.786,7.90649,3.55288,107.31,42.0169
286.1,144.0,136.439,146.018,7.5615,153.579,7.5615,2.30711,102.602,41.1089
286.0,132.0,124.731,139.901,7.26927,147.17,7.26927,1.48522,98.1863,40.2295
285.9,140.0,132.999,134.366,7.00139,141.367,7.00139,0.947487,94.0409,39.3775
285.8,132.0,125.283,129.295,6.71727,136.013,6.71727,0.598773,90.1446,38.5519
285.7,119.0,112.551,124.605,6.44939,131.054,6.44939,0.374731,86.4785,37.7515
285.6,101.0,94.7921,120.233,6.2079,126.441,6.2079,0.23218,83.0253,36.9754
285.5,108.0,101.997,116.134,6.00293,122.137,6.00293,0.142385,79.7695,36.2226
285.4,101.0,95.2162,112.275,5.78375,118.059,5.78375,0.0864049,76.6965,35.4922
285.3,104.0,98.4212,108.629,5.57879,114.207,5.57879,0.0518751,73.7935,34.7834
285.2,96.0,90.6323,105.174,5.36773,110.542,5.36773,0.0308065,71.0483,34.0952
285.1,90.0,84.8271,101.895,5.17291,107.068,5.17291,0.0180931,68.4501,33.427
285.0,76.0,71.0097,98.7771,4.99026,103.767,4.99026,0.0105077,65.9887,32.7779
284.9,85.0,80.164,95.8083,4.83603,100.644,4.83603,0.0060333,63.6549,32.1473
284.8,77.0,72.3365,92.9783,4.66353,97.6418,4.66353,0.00342454,61.4404,31.5345
284.7,73.0,68.4927,90.2778,4.50727,94.7851,4.50727,0.00192131,59.3371,30.9388
284.6,91.0,86.6409,87.6987,4.35912,92.0578,4.35912,0.00106534,57.338,30.3596
284.5,79.0,74.8256,85.2333,4.17445,89.4078,4.17445,0.000583757,55.4365,29.7963
284.4,72.0,67.9859,82.8749,4.01413,86.889,4.01413,0.000316071,53.6263,29.2483
284.3,81.0,77.132,80.6172,3.86801,84.4852,3.86801,0.000169086,51.9018,28.7151
284.2,78.0,74.2964,78.4542,3.70363,82.1579,3.70363,8.93647e-05,50.2579,28.1962
284.1,75.0,71.4547,76.3808,3.54534,79.9261,3.54534,4.66577e-05,48.6896,27.6911
284.0,75.0,71.6069,74.3918,3.39314,77.7849,3.39314,2.4063e-05,47.1925,27.1993
283.9,74.0,70.7591,72.4826,3.24093,75.7236,3.24093,1.22579e-05,45.7624,26.7203
283.8,66.0,62.9092,70.649,3.09076,73.7397,3.09076,6.16725e-06,44.3953,26.2536
283.7,73.0,70.0432,68.8868,2.95682,71.8436,2.95682,3.06446e-06,43.0878,25.799
283.6,75.0,72.1913,67.1923,2.80867,70.001,2.80867,1.50375e-06,41.8364,25.356
283.5,73.0,70.3435,65.5621,2.65647,68.2186,2.65647,7.28678e-07,40.638,24.9241
283.4,62.0,59.4917,63.9928,2.50832,66.5011,2.50832,3.48668e-07,39.4897,24.5031
283.3,60.0,57.6175,62.4814,2.3825,64.8639,2.3825,1.64734e-07,38.3888,24.0925
283.2,63.0,60.7393,61.0249,2.26074,63.2856,2.26074,7.6848e-08,37.3328,23.6921
283.1,56.0,53.8671,59.6207,2.13289,61.7536,2.13289,3.53948e-08,36.3192,23.3014
283.0,68.0,65.9808,58.2662,2.01924,60.2855,2.01924,1.60948e-08,35.3459,22.9203
282.9,72.0,70.1188,56.9591,1.88124,58.8404,1.88124,7.22536e-09,34.4108,22.5483
282.8,56.0,54.2649,55.6972,1.73513,57.4323,1.73513,3.20215e-09,33.5119,22.1853
282.7,62.0,60.3785,54.4782,1.62148,56.0997,1.62148,1.40094e-09,32.6474,21.8308
282.6,57.0,55.5043,53.3003,1.49566,54.7959,1.49566,6.0503e-10,31.8156,21.4847
282.5,61.0,59.62,52.1615,1.37998,53.5415,1.37998,2.57931e-10,31.0148,21.1467
282.4,52.0,50.7438,51.0602,1.25619,52.3163,1.25619,1.08537e-10,30.2436,20.8165
282.3,67.0,65.8493,49.9945,1.15066,51.1452,1.15066,4.50806e-11,29.5006,20.494
282.2,69.0,67.9853,48.9631,1.01469,49.9778,1.01469,1.84832e-11,28.7843,20.1788
282.1,65.0,64.1253,47.9643,0.874666,48.839,0.874666,7.48033e-12,28.0936,19.8707
282.0,63.0,62.2572,46.9969,0.742756,47.7396,0.742756,2.9859e-12,27.4273,19.5696
281.9,56.0,55.3851,46.0594,0.614904,46.6743,0.614904,1.17654e-12,26.7841,19.2753
281.8,66.0,65.4987,45.1506,0.501259,45.6519,0.501259,4.57033e-13,26.1632,18.9874
281.7,68.0,67.6327,44.2693,0.367319,44.6366,0.367319,1.75283e-13,25.5634,18.706
281.6,55.0,54.7707,43.4144,0.229321,43.6438,0.229321,6.67128e-14,24.9838,18.4306
281.5,58.0,57.8823,42.5849,0.117704,42.7026,0.117704,2.59102e-14,24.4236,18.1613