File: XPS/MX-HT-0.5-Ti2p_lg4x.csv
#No of rows lightened (2D detector)1(if not using 2D detector, value is 1 and can be ignored!)
raw_x,raw_y,corrected x,data-bg,sum_components,bg,sum_fit,bg_shirley_,C_1,C_2,C_3,C_4,C_5,C_6,C_7,C_8
467.3,63.83,467.99,-81.3419,2.13689,145.172,147.309,145.172,1.08253e-36,0.0,5.20339e-139,7.71343e-30,6.7448e-16,1.39157e-06,2.11921,0.0176767
467.2,59.3055,467.89,-85.8663,3.17412,145.172,148.346,145.172,8.75858e-36,0.0,1.04414e-136,2.95527e-29,2.42498e-15,2.88987e-06,3.14643,0.0276878
467.1,59.7654,467.79,-85.4065,4.65044,145.172,149.822,145.172,6.9166e-35,0.0,2.00649e-134,1.11876e-28,8.55197e-15,5.92383e-06,4.60746,0.0429683
467.0,104.399,467.69,-40.7725,6.7204,145.172,151.892,145.172,5.33112e-34,0.0,3.69248e-132,4.18476e-28,2.9583e-14,1.19862e-05,6.65432,0.0660665
466.9,89.1468,467.59,-56.025,9.57926,145.172,154.751,145.172,4.01062e-33,0.0,6.50736e-130,1.54666e-27,1.00377e-13,2.39393e-05,9.47859,0.100644
466.8,100.881,467.49,-44.2911,13.4682,145.172,158.64,145.172,2.94489e-32,0.0,1.09823e-127,5.64821e-27,3.34077e-13,4.71948e-05,13.3163,0.151904
466.7,125.756,467.39,-19.4159,18.6782,145.172,163.85,145.172,2.11055e-31,0.0,1.77496e-125,2.03806e-26,1.09062e-12,9.18396e-05,18.451,0.227155
466.6,217.08,467.29,71.9082,25.5515,145.172,170.723,145.172,1.47634e-30,0.0,2.74719e-123,7.26636e-26,3.49238e-12,0.000176408,25.2148,0.33655
466.5,171.581,467.19,26.4091,34.4795,145.172,179.651,145.172,1.00796e-29,0.0,4.07185e-121,2.5598e-25,1.09695e-11,0.000334472,33.9851,0.494027
466.4,250.21,467.09,105.038,45.8965,145.172,191.068,145.172,6.7169e-29,0.0,5.77961e-119,8.91022e-25,3.37962e-11,0.000625972,45.1774,0.718497
466.3,198.945,466.99,53.7727,60.2679,145.172,205.44,145.172,4.36878e-28,0.0,7.85616e-117,3.06452e-24,1.02134e-10,0.00115638,59.2314,1.03531
466.2,158.324,466.89,13.1525,78.0718,145.172,223.244,145.172,2.77343e-27,0.0,1.02265e-114,1.04142e-23,3.02751e-10,0.00210864,76.5916,1.47806
466.1,271.986,466.79,126.814,99.7752,145.172,244.947,145.172,1.71847e-26,0.0,1.27481e-112,3.4969e-23,8.80282e-10,0.00379538,97.6807,2.09068
466.0,254.018,466.69,108.846,125.804,145.172,270.975,145.172,1.03928e-25,0.0,1.52185e-110,1.16019e-22,2.51059e-09,0.00674311,122.867,2.92992
465.9,270.041,466.59,124.87,156.506,145.172,301.678,145.172,6.13462e-25,0.0,1.7398e-108,3.80338e-22,7.02339e-09,0.0118255,152.426,4.06815
465.8,275.147,466.49,129.975,192.118,145.172,337.29,145.172,3.53436e-24,0.0,1.90473e-106,1.23197e-21,1.92724e-08,0.0204706,186.502,5.59643
465.7,358.594,466.39,213.423,232.726,145.172,377.897,145.172,1.98747e-23,0.0,1.99697e-104,3.94297e-21,5.18731e-08,0.034978,225.063,7.6278
465.6,562.15,466.29,416.978,278.229,145.172,423.401,145.172,1.09083e-22,0.0,2.00499e-102,1.24692e-20,1.36952e-07,0.0589945,267.87,10.3006
465.5,484.191,466.19,339.019,328.323,145.172,473.494,145.172,5.84358e-22,0.0,1.92779e-100,3.89622e-20,3.54658e-07,0.0982157,314.443,13.7815
465.4,399.604,466.09,254.433,382.478,145.172,527.65,145.172,3.0554e-21,0.0,1.77505e-98,1.20293e-19,9.00886e-07,0.1614,364.048,18.2685
465.3,585.408,465.99,440.237,439.949,145.172,585.12,145.172,1.55928e-20,0.0,1.56518e-96,3.66968e-19,2.24465e-06,0.261806,415.694,23.993
465.2,708.405,465.89,563.233,499.792,145.172,644.964,145.172,7.76685e-20,1.6938e-316,1.32167e-94,1.10614e-18,5.48585e-06,0.419186,468.152,31.2205
465.1,836.371,465.79,691.199,560.908,145.172,706.079,145.172,3.77601e-19,1.17565e-310,1.06878e-92,3.29443e-18,1.3151e-05,0.662503,519.995,40.2503
465.0,852.895,465.69,707.723,622.098,145.172,767.27,145.172,1.79179e-18,7.20741e-305,8.27664e-91,9.69489e-18,3.09235e-05,1.03353,569.652,51.4127
464.9,821.361,465.59,676.189,682.142,145.172,827.314,145.172,8.29867e-18,3.90294e-299,6.13799e-89,2.81902e-17,7.13244e-05,1.59151,615.486,65.0648
464.8,874.912,465.49,729.74,739.883,145.172,885.055,145.172,3.75142e-17,1.86689e-293,4.35916e-87,8.09923e-17,0.000161363,2.41907,655.881,81.582
464.7,813.432,465.39,668.26,794.314,145.172,939.486,145.172,1.6552e-16,7.88781e-288,2.96472e-85,2.29922e-16,0.000358088,3.62944,689.336,101.348
464.6,940.204,465.29,795.033,844.672,145.172,989.844,145.172,7.12804e-16,2.9438e-282,1.93094e-83,6.44927e-16,0.000779458,5.37508,714.554,124.742
464.5,1049.89,465.19,904.718,890.507,145.172,1035.68,145.172,2.99611e-15,9.70446e-277,1.20436e-81,1.78744e-15,0.00166423,7.85748,730.529,152.118
464.4,1065.06,465.09,919.886,931.744,145.172,1076.92,145.172,1.22917e-14,2.82584e-271,7.19367e-80,4.8949e-15,0.00348539,11.3379,736.612,183.791
464.3,1169.69,464.99,1024.52,968.715,145.172,1113.89,145.172,4.92187e-14,7.26837e-266,4.1148e-78,1.32449e-14,0.00715991,16.1487,732.551,220.008
464.2,1163.7,464.89,1018.53,1002.17,145.172,1147.34,145.172,1.92361e-13,1.65135e-260,2.25398e-76,3.54113e-14,0.0144272,22.7035,718.515,260.933
464.1,1131.56,464.79,986.392,1033.22,145.172,1178.4,145.172,7.33785e-13,3.314e-255,1.18238e-74,9.35468e-14,0.028515,31.5067,695.075,306.613
464.0,1146.36,464.69,1001.19,1063.35,145.172,1208.52,145.172,2.73204e-12,5.87462e-250,5.93974e-73,2.44179e-13,0.0552818,43.1583,663.173,356.966
463.9,1345.99,464.59,1200.81,1094.26,145.172,1239.44,145.172,9.92826e-12,9.19856e-245,2.85747e-71,6.29763e-13,0.105126,58.3552,624.05,411.753
463.8,1301.21,464.49,1156.04,1127.82,145.172,1272.99,145.172,3.52148e-11,1.27225e-239,1.31644e-69,1.60487e-12,0.19609,77.8838,579.177,470.565
463.7,1267.13,464.39,1121.96,1165.93,145.172,1311.1,145.172,1.21911e-10,1.55431e-234,5.80798e-68,4.04102e-12,0.358771,102.605,530.153,532.814
463.6,1346.22,464.29,1201.05,1210.42,145.172,1355.59,145.172,4.11935e-10,1.67732e-229,2.45388e-66,1.00539e-11,0.64387,133.426,478.619,597.73
463.5,1363.69,464.19,1218.52,1262.93,145.172,1408.1,145.172,1.35856e-09,1.59884e-224,9.92854e-65,2.47156e-11,1.13344,171.264,426.164,664.367
463.4,1563.99,464.09,1418.82,1324.82,145.172,1469.99,145.172,4.37318e-09,1.3462e-219,3.847e-63,6.00342e-11,1.9571,216.993,374.25,731.619
463.3,1406.47,463.99,1261.29,1397.09,145.172,1542.26,145.172,1.37398e-08,1.00121e-214,1.42746e-61,1.44085e-10,3.31472,271.379,324.149,798.242
463.2,1564.94,463.89,1419.77,1480.32,145.172,1625.49,145.172,4.21339e-08,6.57737e-210,5.07233e-60,3.41687e-10,5.5068,335.013,276.903,862.895
463.1,1742.71,463.79,1597.54,1574.67,145.172,1719.84,145.172,1.2611e-07,3.81675e-205,1.72606e-58,8.00627e-10,8.97364,408.224,233.296,924.176
463.0,1892.75,463.69,1747.58,1679.89,145.172,1825.06,145.172,3.6841e-07,1.95635e-200,5.62485e-57,1.85363e-09,14.3435,491.008,193.859,980.675
462.9,2029.9,463.59,1884.73,1795.34,145.172,1940.51,145.172,1.05047e-06,8.85754e-196,1.75537e-55,4.24042e-09,22.4885,582.95,158.878,1031.02
462.8,2012.52,463.49,1867.34,1920.13,145.172,2065.3,145.172,2.92347e-06,3.54236e-191,5.24603e-54,9.58485e-09,34.5847,683.167,128.422,1073.95
462.7,2196.77,463.39,2051.6,2053.17,145.172,2198.34,145.172,7.9411e-06,1.25136e-186,1.5014e-52,2.14069e-08,52.1705,790.27,102.38,1108.35
462.6,2371.41,463.29,2226.24,2193.33,145.172,2338.5,145.172,2.10538e-05,3.9047e-182,4.11499e-51,4.72403e-08,77.1941,902.354,80.4983,1133.29
462.5,2542.39,463.19,2397.22,2339.58,145.172,2484.75,145.172,5.44811e-05,1.07623e-177,1.08005e-49,1.03006e-07,112.037,1017.02,62.4249,1148.09
462.4,2604.27,463.09,2459.1,2491.06,145.172,2636.23,145.172,0.000137603,2.6202e-173,2.71471e-48,2.21925e-07,159.498,1131.46,47.745,1152.36
462.3,2654.58,462.99,2509.4,2647.21,145.172,2792.38,145.172,0.000339216,5.63478e-169,6.53442e-47,4.72434e-07,222.724,1242.5,36.016,1145.97
462.2,2960.26,462.89,2815.09,2807.78,145.172,2952.95,145.172,0.000816189,1.07036e-164,1.50624e-45,9.93726e-07,305.068,1346.82,26.7955,1129.09
462.1,3114.72,462.79,2969.55,2972.77,145.172,3117.94,145.172,0.00191678,1.79597e-160,3.32497e-44,2.0653e-06,409.868,1441.04,19.662,1102.2
462.0,3277.41,462.69,3132.24,3142.32,145.172,3287.49,145.172,0.0043936,2.66182e-156,7.02885e-43,4.24124e-06,540.144,1521.93,14.2295,1066.02
461.9,3516.65,462.59,3371.47,3316.49,145.172,3461.66,145.172,0.00982956,3.48476e-152,1.42294e-41,8.60583e-06,698.221,1586.59,10.1567,1021.51
461.8,3789.86,462.49,3644.69,3494.94,145.172,3640.11,145.172,0.0214642,4.02975e-148,2.75861e-40,1.72538e-05,885.307,1632.63,7.15009,969.824
461.7,3842.34,462.39,3697.17,3676.64,145.172,3821.81,145.172,0.0457469,4.1162e-144,5.12153e-39,3.41797e-05,1101.06,1658.31,4.96444,912.258
461.6,3899.24,462.29,3754.06,3859.54,145.172,4004.71,145.172,0.0951646,3.71387e-140,9.10571e-38,6.69025e-05,1343.23,1662.63,3.39959,850.189
461.5,4252.72,462.19,4107.55,4040.27,145.172,4185.44,145.172,0.193222,2.95986e-136,1.55036e-36,0.000129392,1607.33,1645.42,2.29606,785.031
461.4,4216.43,462.09,4071.25,4214.03,145.172,4359.2,145.172,0.382915,2.08366e-132,2.52787e-35,0.000247267,1886.58,1607.36,1.52945,718.177
461.3,4347.5,461.99,4202.33,4374.62,145.172,4519.79,145.172,0.740653,1.29567e-128,3.94713e-34,0.000466892,2172.03,1549.89,1.00482,650.953
461.2,4600.06,461.89,4454.88,4514.66,145.172,4659.83,145.172,1.39828,7.11667e-125,5.90218e-33,0.000871078,2452.87,1475.17,0.651087,584.577
461.1,4963.99,461.79,4818.82,4626.09,145.172,4771.26,145.172,2.57656,3.4528e-121,8.45178e-32,0.00160579,2717.06,1385.91,0.416091,520.123
461.0,4964.33,461.69,4819.16,4700.82,145.172,4845.99,145.172,4.63396,1.47971e-117,1.15901e-30,0.00292492,2952.18,1285.23,0.262262,458.506
460.9,4855.26,461.59,4710.08,4731.56,145.172,4876.73,145.172,8.1345,5.60141e-114,1.52206e-29,0.00526416,3146.33,1176.47,0.163035,400.458
460.8,4847.73,461.49,4702.56,4712.72,145.172,4857.89,145.172,13.9372,1.87296e-110,1.91417e-28,0.00936129,3289.15,1063,0.09996,346.531
460.7,4657.44,461.39,4512.27,4641.26,145.172,4786.44,145.172,23.307,5.5319e-107,2.30533e-27,0.0164488,3372.72,948.061,0.0604462,297.099
460.6,4818.03,461.29,4672.86,4517.41,145.172,4662.58,145.172,38.0422,1.44322e-103,2.65882e-26,0.0285578,3392.31,834.63,0.0360504,252.367
460.5,4582.34,461.19,4437.16,4345.13,145.172,4490.3,145.172,60.6051,3.32584e-100,2.93664e-25,0.0489898,3346.78,725.278,0.0212056,212.392
460.4,4360.87,461.09,4215.7,4132.29,145.172,4277.47,145.172,94.2367,6.76994e-97,3.10611e-24,0.0830384,3238.75,622.11,0.0123024,177.099
460.3,4064.41,460.99,3919.24,3890.5,145.172,4035.67,145.172,143.02,1.21725e-93,3.1462e-23,0.139073,3074.3,526.724,0.00703922,146.308
460.2,3704.41,460.89,3559.24,3634.46,145.172,3779.63,145.172,211.856,1.93325e-90,3.05183e-22,0.230144,2862.41,440.202,0.00397246,119.755
460.1,3452.05,460.79,3306.88,3381.12,145.172,3526.29,145.172,306.303,2.71212e-87,2.83491e-21,0.376311,2614.18,363.14,0.00221102,97.1168
460.0,3177.66,460.69,3032.48,3148.42,145.172,3293.59,145.172,432.243,3.3608e-84,2.52186e-20,0.607976,2341.84,295.698,0.00121374,78.0309
459.9,2991.48,460.59,2846.31,2953.87,145.172,3099.05,145.172,595.348,3.67865e-81,2.14837e-19,0.970548,2057.77,237.671,0.000657136,62.1173
459.8,2863.09,460.49,2717.92,2813.03,145.172,2958.2,145.172,800.351,3.5567e-78,1.75267e-18,1.53087,1773.59,188.563,0.0003509,48.9928
459.7,2881.28,460.39,2736.1,2737.94,145.172,2883.11,145.172,1050.16,3.03752e-75,1.36929e-17,2.3859,1499.44,147.669,0.000184804,38.2847
459.6,2852.42,460.29,2707.25,2735.82,145.172,2880.99,145.172,1344.93,2.29141e-72,1.02446e-16,3.67416,1243.43,114.15,9.59923e-05,29.6409
459.5,3015.08,460.19,2869.91,2808,145.172,2953.17,145.172,1681.15,1.52686e-69,7.34007e-16,5.59055,1011.42,87.0989,4.91768e-05,22.7369
459.4,3079.62,460.09,2934.44,2949.34,145.172,3094.51,145.172,2051.08,8.98687e-67,5.03626e-15,8.4051,806.974,65.6,2.48475e-05,17.28
459.3,3293.23,459.99,3148.06,3148.26,145.172,3293.43,145.172,2442.44,4.6723e-64,3.30919e-14,12.486,631.547,48.7695,1.23824e-05,13.0116
459.2,3617.92,459.89,3472.75,3387.41,145.172,3532.59,145.172,2838.78,2.14568e-61,2.08228e-13,18.3271,484.807,35.7886,6.08587e-06,9.70712
459.1,3927.06,459.79,3781.88,3645.1,145.172,3790.28,145.172,3220.38,8.70387e-59,1.25476e-12,26.5801,365.049,25.9236,2.95013e-06,7.17503
459.0,4243.61,459.69,4098.44,3897.22,145.172,4042.39,145.172,3565.72,3.11869e-56,7.24079e-12,38.09,269.619,18.5352,1.41045e-06,5.25449
458.9,4435.13,459.59,4289.96,4119.65,145.172,4264.83,145.172,3853.5,9.87064e-54,4.00144e-11,53.9333,195.329,13.0814,6.65076e-07,3.8125
458.8,4488.59,459.49,4343.42,4290.82,145.172,4435.99,145.172,4064.7,2.7595e-51,2.11763e-10,75.4561,138.804,9.11299,3.09303e-07,2.74072
458.7,4595.67,459.39,4450.5,4394.03,145.172,4539.2,145.172,4184.75,6.81441e-49,1.07322e-09,104.309,96.751,6.26646,1.41872e-07,1.95205
458.6,4712.62,459.29,4567.45,4419.35,145.172,4564.53,145.172,4205.1,1.48641e-46,5.20873e-09,142.477,66.1495,4.2534,6.41808e-08,1.3775
458.5,4585.53,459.19,4440.36,4364.75,145.172,4509.93,145.172,4124.29,2.86393e-44,2.42091e-08,192.29,44.3624,2.84972,2.86361e-08,0.963086
458.4,4185.4,459.09,4040.23,4236.26,145.172,4381.44,145.172,3948.1,4.87414e-42,1.07753e-07,256.424,29.1824,1.88461,1.26014e-08,0.667133
458.3,3862.49,458.99,3717.31,4047.27,145.172,4192.44,145.172,3688.88,7.32735e-40,4.5929e-07,337.874,18.8298,1.23025,5.46922e-09,0.45786
458.2,3833.21,458.89,3688.03,3817,145.172,3962.17,145.172,3364.09,9.7299e-38,1.87476e-06,439.887,11.9175,0.792719,2.34115e-09,0.311334
458.1,3541.69,458.79,3396.52,3568.36,145.172,3713.53,145.172,2994.37,1.14125e-35,7.32844e-06,565.873,7.39855,0.504193,9.88396e-10,0.209746
458.0,3227.83,458.69,3082.66,3325.65,145.172,3470.82,145.172,2601.43,1.18241e-33,2.74334e-05,719.264,4.5053,0.316539,4.11558e-10,0.140002
457.9,3133.4,458.59,2988.23,3112.2,145.172,3257.38,145.172,2205.89,1.0821e-31,9.83452e-05,903.337,2.69103,0.19616,1.69017e-10,0.0925868
457.8,3098.46,458.49,2953.29,2948.42,145.172,3093.59,145.172,1825.67,8.74742e-30,0.000337622,1120.99,1.57664,0.119991,6.84585e-11,0.0606648
457.7,2972.91,458.39,2827.74,2850.3,145.172,2995.47,145.172,1474.78,6.24603e-28,0.00110997,1374.51,0.906073,0.0724497,2.73479e-11,0.039382
457.6,3103.38,458.29,2958.21,2828.62,145.172,2973.79,145.172,1162.78,3.9395e-26,0.00349461,1665.26,0.510754,0.0431796,1.0775e-11,0.0253298
457.5,3258.95,458.19,3113.78,2888.62,145.172,3033.79,145.172,894.818,2.19478e-24,0.0105363,1993.47,0.282409,0.0254023,4.18707e-12,0.0161414
457.4,3364.53,458.09,3219.36,3030.23,145.172,3175.4,145.172,672.107,1.08007e-22,0.0304217,2357.91,0.153166,0.014751,1.60473e-12,0.0101911
457.3,3580.35,457.99,3435.18,3248.65,145.172,3393.82,145.172,492.73,4.69493e-21,0.0841167,2755.74,0.0814826,0.00845515,6.06583e-13,0.00637495
457.2,3878.15,457.89,3732.98,3535.14,145.172,3680.31,145.172,352.571,1.80267e-19,0.222733,3182.29,0.0425191,0.00478382,2.2614e-13,0.00395098
457.1,4050.78,457.79,3905.6,3877.88,145.172,4023.06,145.172,246.235,6.11389e-18,0.564797,3631.06,0.0217632,0.00267166,8.31504e-14,0.00242609
457.0,4359.25,457.69,4214.08,4262.95,145.172,4408.12,145.172,167.849,1.8316e-16,1.37153,4093.72,0.0109264,0.00147279,3.01543e-14,0.00147598
456.9,4789.59,457.59,4644.42,4675.18,145.172,4820.35,145.172,111.675,4.84681e-15,3.18949,4560.31,0.00538085,0.000801404,1.07853e-14,0.000889671
456.8,5051.59,457.49,4906.42,5099.15,145.172,5244.32,145.172,72.52,1.13291e-13,7.10299,5019.52,0.00259921,0.000430443,3.80464e-15,0.000531314
456.7,5421.04,457.39,5275.87,5520.22,145.172,5665.39,145.172,45.965,2.33908e-12,15.1484,5459.11,0.00123155,0.000228209,1.32371e-15,0.000314374
456.6,5859.6,457.29,5714.43,5925.78,145.172,6070.96,145.172,28.4356,4.26589e-11,30.9382,5866.41,0.000572371,0.000119427,4.54226e-16,0.000184296
456.5,6313.62,457.19,6168.44,6306.63,145.172,6451.8,145.172,17.1698,6.87205e-10,60.5101,6228.95,0.000260929,6.16916e-05,1.53727e-16,0.000107043
456.4,6801.27,457.09,6656.09,6658.5,145.172,6803.67,145.172,10.1189,9.77857e-09,113.335,6535.05,0.000116677,3.14559e-05,5.13126e-17,6.15989e-05
456.3,7127.06,456.99,6981.88,6983.56,145.172,7128.73,145.172,5.8206,1.22907e-07,203.286,6774.45,5.11758e-05,1.58318e-05,1.68927e-17,3.51206e-05
456.2,7514.6,456.89,7369.43,7291.36,145.172,7436.53,145.172,3.2679,1.36456e-06,349.184,6938.91,2.20172e-05,7.86523e-06,5.48492e-18,1.98392e-05
456.1,7994.5,456.79,7849.32,7598.8,145.172,7743.97,145.172,1.79076,1.33819e-05,574.387,7022.63,9.29133e-06,3.85696e-06,1.75647e-18,1.11035e-05
456.0,8265.29,456.69,8120.12,7928.4,145.172,8073.57,145.172,0.957791,0.00011592,904.814,7022.63,3.84602e-06,1.86695e-06,5.54766e-19,6.15699e-06
455.9,8768.07,456.59,8622.9,8304.36,145.172,8449.53,145.172,0.500001,0.000886974,1364.96,6938.91,1.56157e-06,8.92015e-07,1.72813e-19,3.3826e-06
455.8,9263.71,456.49,9118.54,8746.6,145.172,8891.77,145.172,0.254764,0.00599482,1971.89,6774.45,6.21916e-07,4.20693e-07,5.30937e-20,1.84123e-06
455.7,9548.36,456.39,9403.19,9263.24,145.172,9408.41,145.172,0.126699,0.0357893,2728.03,6535.05,2.42951e-07,1.95844e-07,1.60882e-20,9.92971e-07
455.6,9985.8,456.29,9840.63,9843.48,145.172,9988.65,145.172,0.0614995,0.188731,3614.28,6228.95,9.30943e-08,8.9993e-08,4.80806e-21,5.30566e-07
455.5,10372.4,456.19,10227.3,10452.9,145.172,10598.1,145.172,0.0291365,0.879118,4585.62,5866.41,3.49901e-08,4.08187e-08,1.4172e-21,2.80877e-07
455.4,10573.3,456.09,10428.1,11034.3,145.172,11179.5,145.172,0.0134732,3.61712,5571.58,5459.11,1.28999e-08,1.82753e-08,4.11994e-22,1.47321e-07
455.3,11192.4,455.99,11047.2,11515.5,145.172,11660.7,145.172,0.00608093,13.1459,6482.81,5019.52,4.66492e-09,8.07644e-09,1.18127e-22,7.65576e-08
455.2,11583.3,455.89,11438.2,11826.1,145.172,11971.3,145.172,0.00267877,42.2019,7223.58,4560.31,1.6547e-09,3.52314e-09,3.34045e-23,3.94171e-08
455.1,11727.4,455.79,11582.2,11921.5,145.172,12066.6,145.172,0.00115177,119.67,7708.08,4093.72,5.75723e-10,1.51702e-09,9.31665e-24,2.01073e-08
455.0,11942.8,455.69,11797.6,11807.5,145.172,11952.7,145.172,0.000483355,299.745,7876.7,3631.06,1.96483e-10,6.44773e-10,2.56279e-24,1.01624e-08
454.9,11975.1,455.59,11830,11553.6,145.172,11698.7,145.172,0.000197984,663.179,7708.08,3182.29,6.5774e-11,2.70505e-10,6.95288e-25,5.08879e-09
454.8,11784.9,455.49,11639.7,11275.4,145.172,11420.5,145.172,7.91521e-05,1296.05,7223.58,2755.74,2.15974e-11,1.1202e-10,1.86044e-25,2.52467e-09
454.7,11808,455.39,11662.8,11078,145.172,11223.2,145.172,3.08859e-05,2237.31,6482.81,2357.91,6.95611e-12,4.57898e-11,4.9098e-26,1.24099e-09
454.6,11503,455.29,11357.9,10976.5,145.172,11121.7,145.172,1.17632e-05,3411.49,5571.58,1993.47,2.1976e-12,1.84755e-11,1.27794e-26,6.04373e-10
454.5,11292.1,455.19,11146.9,10845.8,145.172,10990.9,145.172,4.37276e-06,4594.87,4585.62,1665.26,6.81003e-13,7.35825e-12,3.28062e-27,2.91618e-10
454.4,10723.1,455.09,10577.9,10455.4,145.172,10600.5,145.172,1.58654e-06,5466.58,3614.28,1374.51,2.06999e-13,2.89272e-12,8.30615e-28,1.39412e-10
454.3,9878.66,454.99,9733.49,9593.77,145.172,9738.94,145.172,5.61844e-07,5744.74,2728.03,1120.99,6.17168e-14,1.12251e-12,2.07416e-28,6.60322e-11
454.2,8254.69,454.89,8109.52,8207.81,145.172,8352.99,145.172,1.94199e-07,5332.59,1971.89,903.337,1.80492e-14,4.29961e-13,5.10838e-29,3.09875e-11
454.1,6096.11,454.79,5950.94,6456.61,145.172,6601.78,145.172,6.55153e-08,4372.39,1364.96,719.264,5.17761e-15,1.62562e-13,1.24086e-29,1.44076e-11
454.0,4145.67,454.69,4000.49,4637.42,145.172,4782.59,145.172,2.15727e-08,3166.73,904.814,565.873,1.45686e-15,6.06684e-14,2.97276e-30,6.63694e-12
453.9,2601.72,454.59,2456.55,3040.17,145.172,3185.34,145.172,6.93322e-09,2025.9,574.387,439.887,4.02092e-16,2.2349e-14,7.02418e-31,3.02914e-12
453.8,1747.52,454.49,1602.35,1831.87,145.172,1977.04,145.172,2.17486e-09,1144.81,349.184,337.874,1.08856e-16,8.12657e-15,1.63693e-31,1.36975e-12
453.7,1298.28,454.39,1153.11,1031.14,145.172,1176.32,145.172,6.65875e-10,571.434,203.286,256.424,2.89064e-17,2.91682e-15,3.76238e-32,6.13678e-13
453.6,858.614,454.29,713.442,557.572,145.172,702.744,145.172,1.98985e-10,251.947,113.335,192.29,7.5293e-18,1.03339e-15,8.52892e-33,2.72403e-13
453.5,664.496,454.19,519.324,301.109,145.172,446.281,145.172,5.80385e-11,98.1219,60.5101,142.477,1.92368e-18,3.61386e-16,1.90688e-33,1.198e-13
453.4,626.482,454.09,481.31,169.002,145.172,314.174,145.172,1.65226e-11,33.7547,30.9382,104.309,4.82091e-19,1.24747e-16,4.20486e-34,5.22004e-14
453.3,499.832,453.99,354.66,100.861,145.172,246.033,145.172,4.59099e-12,10.2569,15.1484,75.4561,1.18507e-19,4.25054e-17,9.14489e-35,2.25354e-14
453.2,485.638,453.89,340.466,63.7893,145.172,208.961,145.172,1.24509e-12,2.75303,7.10299,53.9333,2.85743e-20,1.42958e-17,1.96157e-35,9.63895e-15
453.1,394.035,453.79,248.863,41.9322,145.172,187.104,145.172,3.2958e-13,0.652706,3.18949,38.09,6.7581e-21,4.746e-18,4.1498e-36,4.08477e-15
453.0,265.582,453.69,120.41,28.0883,145.172,173.26,145.172,8.51508e-14,0.13669,1.37153,26.5801,1.56781e-21,1.55525e-18,8.65862e-37,1.71506e-15
452.9,332.893,453.59,187.722,18.9172,145.172,164.089,145.172,2.14725e-14,0.0252853,0.564797,18.3271,3.56761e-22,5.03064e-19,1.78184e-37,7.13451e-16
452.8,298.331,453.49,153.159,12.7129,145.172,157.885,145.172,5.28497e-15,0.00413156,0.222733,12.486,7.96307e-23,1.6062e-19,3.61649e-38,2.94051e-16
452.7,289.602,453.39,144.43,8.48982,145.172,153.662,145.172,1.26961e-15,0.000596309,0.0841167,8.4051,1.74342e-23,5.06209e-20,7.23944e-39,1.20076e-16
452.6,279.801,453.29,134.629,5.62105,145.172,150.793,145.172,2.97689e-16,7.60224e-05,0.0304217,5.59055,3.74404e-24,1.57475e-20,1.42929e-39,4.85802e-17
452.5,178.571,453.19,33.3992,3.6847,145.172,148.857,145.172,6.81274e-17,8.56099e-06,0.0105363,3.67416,7.88673e-25,4.83558e-21,2.78314e-40,1.94732e-17
452.4,199.029,453.09,53.8575,2.3894,145.172,147.561,145.172,1.52177e-17,8.51569e-07,0.00349461,2.3859,1.62956e-25,1.46567e-21,5.34499e-41,7.73375e-18
452.3,206.596,452.99,61.424,1.53198,145.172,146.704,145.172,3.31772e-18,7.48217e-08,0.00110997,1.53087,3.30265e-26,4.38508e-22,1.01241e-41,3.0431e-18
452.2,181.093,452.89,35.9212,0.970885,145.172,146.143,145.172,7.0599e-19,5.80696e-09,0.000337622,0.970548,6.56558e-27,1.295e-22,1.89133e-42,1.18635e-18
452.1,180.489,452.79,35.3177,0.608074,145.172,145.78,145.172,1.4663e-19,3.98091e-10,9.83452e-05,0.607976,1.28027e-27,3.77501e-23,3.48478e-43,4.58234e-19
452.0,131.695,452.69,-13.4767,0.376339,145.172,145.548,145.172,2.97246e-20,2.41062e-11,2.74334e-05,0.376311,2.44876e-28,1.08622e-23,6.33258e-44,1.75361e-19
451.9,152.794,452.59,7.62198,0.230151,145.172,145.402,145.172,5.88131e-21,1.2894e-12,7.32844e-06,0.230144,4.59419e-29,3.0851e-24,1.13497e-44,6.64893e-20
451.8,70.6568,452.49,-74.5151,0.139075,145.172,145.311,145.172,1.13579e-21,6.09198e-14,1.87476e-06,0.139073,8.45455e-30,8.64918e-25,2.00627e-45,2.49772e-20
451.7,112.364,452.39,-32.8083,0.0830388,145.172,145.255,145.172,2.14087e-22,2.54239e-15,4.5929e-07,0.0830384,1.52612e-30,2.3935e-25,3.49776e-46,9.2963e-21
451.6,175.475,452.29,30.3034,0.0489899,145.172,145.221,145.172,3.93865e-23,9.37214e-17,1.07753e-07,0.0489898,2.70213e-31,6.53798e-26,6.01437e-47,3.42807e-21
451.5,180.851,452.19,35.6795,0.0285578,145.172,145.2,145.172,7.07246e-24,3.05175e-18,2.42091e-08,0.0285578,4.69289e-32,1.76282e-26,1.01997e-47,1.25245e-21
451.4,48.738,452.09,-96.4338,0.0164488,145.172,145.188,145.172,1.23954e-24,8.77749e-20,5.20873e-09,0.0164488,7.99453e-33,4.69163e-27,1.70602e-48,4.53365e-22
451.3,146.492,451.99,1.32012,0.00936129,145.172,145.181,145.172,2.1204e-25,2.23e-21,1.07322e-09,0.00936129,1.33587e-33,1.23252e-27,2.81436e-49,1.62595e-22
451.2,104.461,451.89,-40.7107,0.00526416,145.172,145.177,145.172,3.54031e-26,5.0044e-23,2.11763e-10,0.00526416,2.18953e-34,3.19606e-28,4.57903e-50,5.77751e-23
451.1,52.0656,451.79,-93.1062,0.00292492,145.172,145.175,145.172,5.7694e-27,9.92002e-25,4.00144e-11,0.00292492,3.52011e-35,8.18068e-29,7.34794e-51,2.03398e-23
451.0,68.5313,451.69,-76.6405,0.00160579,145.172,145.173,145.172,9.17671e-28,1.73694e-26,7.24079e-12,0.00160579,5.55111e-36,2.06689e-29,1.16294e-51,7.09458e-24
450.9,164.431,451.59,19.2592,0.000871078,145.172,145.173,145.172,1.42465e-28,2.6864e-28,1.25476e-12,0.000871078,8.5866e-37,5.15463e-30,1.81529e-52,2.45177e-24
450.8,90.4152,451.49,-54.7566,0.000466892,145.172,145.172,145.172,2.15873e-29,3.67002e-30,2.08228e-13,0.000466892,1.30281e-37,1.26891e-30,2.79468e-53,8.39473e-25
450.7,61.0,451.39,-84.1718,0.000247267,145.172,145.172,145.172,3.19267e-30,4.42873e-32,3.30919e-14,0.000247267,1.93891e-38,3.08331e-31,4.24344e-54,2.84778e-25
450.6,0.0,451.29,-145.172,0.000129392,145.172,145.172,145.172,4.60867e-31,4.72066e-34,5.03626e-15,0.000129392,2.83043e-39,7.39529e-32,6.3548e-55,9.5715e-26
450.5,25.0,451.19,-120.172,6.69025e-05,145.172,145.172,145.172,6.49327e-32,4.44466e-36,7.34007e-16,6.69025e-05,4.05288e-40,1.75084e-32,9.38609e-56,3.18733e-26
450.4,126.0,451.09,-19.1718,3.41797e-05,145.172,145.172,145.172,8.92932e-33,3.69647e-38,1.02446e-16,3.41797e-05,5.69239e-41,4.09159e-33,1.36731e-56,1.05159e-26
450.3,45.0,450.99,-100.172,1.72538e-05,145.172,145.172,145.172,1.1985e-33,2.71549e-40,1.36929e-17,1.72538e-05,7.84228e-42,9.43819e-34,1.96447e-57,3.43749e-27
450.2,99.0,450.89,-46.1718,8.60583e-06,145.172,145.172,145.172,1.5701e-34,1.76207e-42,1.75267e-18,8.60583e-06,1.05976e-42,2.14901e-34,2.7837e-58,1.11329e-27
450.1,92.0,450.79,-53.1718,4.24124e-06,145.172,145.172,145.172,2.00762e-35,1.00997e-44,2.14837e-19,4.24124e-06,1.40473e-43,4.82994e-35,3.89045e-59,3.57231e-28
450.0,80.0,450.69,-65.1718,2.0653e-06,145.172,145.172,145.172,2.50554e-36,5.11338e-47,2.52186e-20,2.0653e-06,1.82639e-44,1.07151e-35,5.36258e-60,1.1357e-28