File: XPS/Casa format/HT CP 19 Ap location C1 in image-0.6621_HTCP19ApTi3s_Ti3s.txt
BE/eV	PE: 20.0 eV
74.0	166.0
73.9	168.0
73.8	156.0
73.7	167.0
73.6	168.0
73.5	180.0
73.4	177.0
73.3	182.0
73.2	174.0
73.1	165.0
73.0	176.0
72.9	154.0
72.8	147.0
72.7	181.0
72.6	157.0
72.5	178.0
72.4	163.0
72.3	163.0
72.2	170.0
72.1	166.0
72.0	163.0
71.9	161.0
71.8	158.0
71.7	178.0
71.6	154.0
71.5	162.0
71.4	166.0
71.3	161.0
71.2	174.0
71.1	177.0
71.0	156.0
70.9	162.0
70.8	166.0
70.7	175.0
70.6	173.0
70.5	157.0
70.4	180.0
70.3	181.0
70.2	168.0
70.1	152.0
70.0	142.0
69.9	161.0
69.8	171.0
69.7	173.0
69.6	158.0
69.5	166.0
69.4	176.0
69.3	163.0
69.2	150.0
69.1	183.0
69.0	171.0
68.9	172.0
68.8	174.0
68.7	168.0
68.6	168.0
68.5	186.0
68.4	174.0
68.3	174.0
68.2	158.0
68.1	151.0
68.0	156.0
67.9	170.0
67.8	158.0
67.7	169.0
67.6	165.0
67.5	168.0
67.4	181.0
67.3	162.0
67.2	156.0
67.1	153.0
67.0	151.0
66.9	163.0
66.8	161.0
66.7	165.0
66.6	156.0
66.5	155.0
66.4	155.0
66.3	173.0
66.2	163.0
66.1	167.0
66.0	160.0
65.9	159.0
65.8	161.0
65.7	155.0
65.6	146.0
65.5	147.0
65.4	147.0
65.3	157.0
65.2	156.0
65.1	159.0
65.0	155.0
64.9	164.0
64.8	153.0
64.7	156.0
64.6	137.0
64.5	172.0
64.4	160.0
64.3	162.0
64.2	152.0
64.1	165.0
64.0	151.0
63.9	151.0
63.8	171.0
63.7	145.0
63.6	142.0
63.5	158.0
63.4	164.0
63.3	179.0
63.2	150.0
63.1	156.0
63.0	155.0
62.9	159.0
62.8	158.0
62.7	162.0
62.6	160.0
62.5	152.0
62.4	153.0
62.3	154.0
62.2	160.0
62.1	154.0
62.0	157.0
61.9	170.0
61.8	163.0
61.7	161.0
61.6	171.0
61.5	149.0
61.4	153.0
61.3	150.0
61.2	157.0
61.1	149.0
61.0	142.0
60.9	154.0
60.8	142.0
60.7	176.0
60.6	152.0
60.5	160.0
60.4	159.0
60.3	153.0
60.2	155.0
60.1	169.0
60.0	156.0
59.9	154.0
59.8	157.0
59.7	160.0
59.6	167.0
59.5	164.0
59.4	151.0
59.3	162.0
59.2	158.0
59.1	159.0
59.0	162.0
58.9	148.0
58.8	154.0
58.7	148.0
58.6	170.0
58.5	153.0
58.4	153.0
58.3	165.0
58.2	157.0
58.1	166.0
58.0	142.0
57.9	145.0
57.8	157.0
57.7	164.0
57.6	149.0
57.5	152.0
57.4	177.0
57.3	173.0
57.2	175.0
57.1	173.0
57.0	178.0
56.9	172.0
56.8	163.0
56.7	163.0
56.6	175.0
56.5	174.0
56.4	180.0
56.3	187.0
56.2	177.0
56.1	191.0
56.0	162.0
55.9	157.0
55.8	154.0
55.7	138.0
55.6	172.0
55.5	179.0
55.4	166.0
55.3	154.0
55.2	176.0
55.1	160.0
55.0	170.0
54.9	172.0
54.8	182.0
54.7	188.0
54.6	182.0
54.5	167.0
54.4	163.0
54.3	172.0
54.2	163.0
54.1	172.0
54.0	169.0
53.9	178.0
53.8	166.0
53.7	167.0
53.6	189.0
53.5	183.0
53.4	175.0
53.3	170.0
53.2	188.0
53.1	169.0
53.0	159.0
52.9	161.0
52.8	172.0
52.7	176.0
52.6	170.0
52.5	191.0
52.4	166.0
52.3	171.0
52.2	180.0
52.1	185.0
52.0	196.0
51.9	193.0
51.8	206.0
51.7	193.0
51.6	187.0
51.5	189.0
51.4	189.0
51.3	186.0
51.2	194.0
51.1	193.0
51.0	205.0
50.9	196.0
50.8	200.0
50.7	202.0
50.6	187.0
50.5	179.0
50.4	180.0
50.3	182.0
50.2	194.0
50.1	209.0
50.0	176.0
49.9	176.0
49.8	179.0
49.7	193.0
49.6	186.0
49.5	192.0
49.4	197.0
49.3	186.0
49.2	179.0
49.1	206.0
49.0	211.0
48.9	197.0
48.8	194.0
48.7	188.0
48.6	197.0
48.5	195.0
48.4	179.0
48.3	174.0
48.2	204.0
48.1	197.0
48.0	214.0
47.9	190.0
47.8	190.0
47.7	193.0
47.6	204.0
47.5	198.0
47.4	197.0
47.3	210.0
47.2	214.0
47.1	204.0
47.0	177.0
46.9	192.0
46.8	194.0
46.7	172.0
46.6	215.0
46.5	196.0
46.4	171.0
46.3	192.0
46.2	208.0
46.1	216.0
46.0	212.0
45.9	191.0
45.8	204.0
45.7	204.0
45.6	195.0
45.5	213.0
45.4	182.0
45.3	186.0
45.2	195.0
45.1	186.0
45.0	182.0
44.9	200.0
44.8	193.0
44.7	179.0
44.6	186.0
44.5	184.0
44.4	180.0
44.3	194.0
44.2	191.0
44.1	190.0
44.0	205.0