File: XPS/Casa format/HT CP 19 Ap location C1 in image-0.6621_HTCP19ApCl2s_Cl2s.txt
BE/eV	PE: 20.0 eV
285.0	2000.0
284.9	2198.0
284.8	2385.0
284.7	2599.0
284.6	3074.0
284.5	3766.0
284.4	4808.0
284.3	6490.0
284.2	9072.0
284.1	12707.0
284.0	16208.0
283.9	18090.0
283.8	16484.0
283.7	12265.0
283.6	7589.0
283.5	4229.0
283.4	2363.0
283.3	1432.0
283.2	1013.0
283.1	714.0
283.0	561.0
282.9	431.0
282.8	358.0
282.7	307.0
282.6	242.0
282.5	208.0
282.4	166.0
282.3	125.0
282.2	112.0
282.1	124.0
282.0	106.0
281.9	89.0
281.8	100.0
281.7	88.0
281.6	78.0
281.5	73.0
281.4	80.0
281.3	77.0
281.2	74.0
281.1	70.0
281.0	51.0
280.9	62.0
280.8	56.0
280.7	58.0
280.6	53.0
280.5	53.0
280.4	52.0
280.3	60.0
280.2	61.0
280.1	59.0
280.0	53.0
279.9	51.0
279.8	45.0
279.7	38.0
279.6	46.0
279.5	40.0
279.4	49.0
279.3	30.0
279.2	38.0
279.1	46.0
279.0	37.0
278.9	44.0
278.8	46.0
278.7	39.0
278.6	28.0
278.5	33.0
278.4	33.0
278.3	24.0
278.2	30.0
278.1	46.0
278.0	36.0
277.9	41.0
277.8	34.0
277.7	49.0
277.6	36.0
277.5	32.0
277.4	45.0
277.3	37.0
277.2	42.0
277.1	36.0
277.0	29.0
276.9	29.0
276.8	42.0
276.7	36.0
276.6	31.0
276.5	37.0
276.4	29.0
276.3	24.0
276.2	35.0
276.1	39.0
276.0	32.0
275.9	26.0
275.8	30.0
275.7	33.0
275.6	34.0
275.5	37.0
275.4	32.0
275.3	25.0
275.2	28.0
275.1	30.0
275.0	35.0
274.9	37.0
274.8	38.0
274.7	25.0
274.6	33.0
274.5	31.0
274.4	33.0
274.3	38.0
274.2	36.0
274.1	36.0
274.0	29.0
273.9	21.0
273.8	26.0
273.7	29.0
273.6	35.0
273.5	36.0
273.4	43.0
273.3	37.0
273.2	30.0
273.1	33.0
273.0	33.0
272.9	30.0
272.8	35.0
272.7	37.0
272.6	27.0
272.5	27.0
272.4	34.0
272.3	32.0
272.2	30.0
272.1	41.0
272.0	32.0
271.9	36.0
271.8	34.0
271.7	30.0
271.6	38.0
271.5	33.0
271.4	30.0
271.3	35.0
271.2	34.0
271.1	28.0
271.0	23.0
270.9	21.0
270.8	25.0
270.7	26.0
270.6	32.0
270.5	33.0
270.4	40.0
270.3	33.0
270.2	27.0
270.1	38.0
270.0	37.0
269.9	40.0
269.8	41.0
269.7	32.0
269.6	26.0
269.5	35.0
269.4	37.0
269.3	27.0
269.2	35.0
269.1	36.0
269.0	36.0
268.9	34.0
268.8	31.0
268.7	29.0
268.6	31.0
268.5	22.0
268.4	31.0
268.3	34.0
268.2	43.0
268.1	31.0
268.0	26.0
267.9	33.0
267.8	30.0
267.7	33.0
267.6	27.0
267.5	24.0
267.4	38.0
267.3	40.0
267.2	34.0
267.1	29.0
267.0	30.0
266.9	33.0
266.8	34.0
266.7	36.0
266.6	38.0
266.5	26.0
266.4	29.0
266.3	22.0
266.2	27.0
266.1	34.0
266.0	37.0
265.9	36.0
265.8	24.0
265.7	31.0
265.6	27.0
265.5	28.0
265.4	26.0
265.3	32.0
265.2	28.0
265.1	34.0
265.0	31.0
264.9	28.0
264.8	29.0
264.7	28.0
264.6	42.0
264.5	37.0
264.4	32.0
264.3	26.0
264.2	25.0
264.1	39.0
264.0	34.0
263.9	32.0
263.8	34.0
263.7	31.0
263.6	23.0
263.5	26.0
263.4	25.0
263.3	34.0
263.2	35.0
263.1	36.0
263.0	36.0
262.9	36.0
262.8	34.0
262.7	30.0
262.6	37.0
262.5	34.0
262.4	30.0
262.3	27.0
262.2	34.0
262.1	36.0
262.0	49.0
261.9	33.0
261.8	28.0
261.7	24.0
261.6	27.0
261.5	26.0
261.4	32.0
261.3	26.0
261.2	35.0
261.1	27.0
261.0	30.0
260.9	34.0
260.8	38.0
260.7	32.0
260.6	32.0
260.5	32.0
260.4	28.0
260.3	32.0
260.2	28.0
260.1	31.0
260.0	33.0
259.9	33.0
259.8	34.0
259.7	37.0
259.6	31.0
259.5	30.0
259.4	36.0
259.3	37.0
259.2	32.0
259.1	32.0
259.0	30.0
258.9	29.0
258.8	30.0
258.7	23.0
258.6	30.0
258.5	38.0
258.4	28.0
258.3	29.0
258.2	31.0
258.1	27.0
258.0	30.0
257.9	30.0
257.8	22.0
257.7	28.0
257.6	27.0
257.5	33.0
257.4	29.0
257.3	26.0
257.2	28.0
257.1	23.0
257.0	27.0
256.9	30.0
256.8	27.0
256.7	37.0
256.6	29.0
256.5	35.0
256.4	30.0
256.3	35.0
256.2	36.0
256.1	25.0
256.0	28.0
255.9	26.0
255.8	30.0
255.7	45.0
255.6	37.0
255.5	31.0
255.4	20.0
255.3	17.0
255.2	26.0
255.1	30.0
255.0	30.0