File: XPS/Casa format/HT CP 19 Ap location C1 in image_HTCP19ApTi3p_Ti3p.txt
BE/eV	PE: 20.0 eV
49.0	179.0
48.9	181.0
48.8	181.0
48.7	200.0
48.6	198.0
48.5	182.0
48.4	181.0
48.3	161.0
48.2	177.0
48.1	191.0
48.0	185.0
47.9	176.0
47.8	202.0
47.7	190.0
47.6	188.0
47.5	194.0
47.4	189.0
47.3	189.0
47.2	202.0
47.1	191.0
47.0	192.0
46.9	207.0
46.8	187.0
46.7	200.0
46.6	208.0
46.5	206.0
46.4	192.0
46.3	184.0
46.2	191.0
46.1	194.0
46.0	196.0
45.9	185.0
45.8	183.0
45.7	190.0
45.6	188.0
45.5	193.0
45.4	184.0
45.3	211.0
45.2	195.0
45.1	183.0
45.0	189.0
44.9	215.0
44.8	195.0
44.7	190.0
44.6	196.0
44.5	198.0
44.4	193.0
44.3	193.0
44.2	195.0
44.1	193.0
44.0	219.0
43.9	179.0
43.8	204.0
43.7	201.0
43.6	221.0
43.5	208.0
43.4	200.0
43.3	191.0
43.2	182.0
43.1	192.0
43.0	193.0
42.9	196.0
42.8	165.0
42.7	183.0
42.6	194.0
42.5	179.0
42.4	171.0
42.3	176.0
42.2	175.0
42.1	164.0
42.0	169.0
41.9	189.0
41.8	187.0
41.7	179.0
41.6	180.0
41.5	182.0
41.4	171.0
41.3	188.0
41.2	195.0
41.1	189.0
41.0	180.0
40.9	171.0
40.8	198.0
40.7	185.0
40.6	161.0
40.5	170.0
40.4	202.0
40.3	184.0
40.2	173.0
40.1	189.0
40.0	168.0
39.9	144.0
39.8	148.0
39.7	170.0
39.6	186.0
39.5	177.0
39.4	168.0
39.3	175.0
39.2	181.0
39.1	175.0
39.0	180.0
38.9	166.0
38.8	169.0
38.7	166.0
38.6	162.0
38.5	152.0
38.4	175.0
38.3	151.0
38.2	155.0
38.1	176.0
38.0	167.0
37.9	165.0
37.8	152.0
37.7	156.0
37.6	167.0
37.5	166.0
37.4	148.0
37.3	158.0
37.2	152.0
37.1	171.0
37.0	164.0
36.9	153.0
36.8	148.0
36.7	155.0
36.6	135.0
36.5	161.0
36.4	152.0
36.3	158.0
36.2	151.0
36.1	169.0
36.0	151.0
35.9	154.0
35.8	128.0
35.7	144.0
35.6	148.0
35.5	154.0
35.4	162.0
35.3	147.0
35.2	147.0
35.1	148.0
35.0	141.0
34.9	147.0
34.8	157.0
34.7	153.0
34.6	140.0
34.5	145.0
34.4	144.0
34.3	144.0
34.2	137.0
34.1	135.0
34.0	118.0
33.9	133.0
33.8	142.0
33.7	135.0
33.6	131.0
33.5	135.0
33.4	153.0
33.3	146.0
33.2	138.0
33.1	128.0
33.0	129.0
32.9	130.0
32.8	130.0
32.7	146.0
32.6	133.0
32.5	123.0
32.4	136.0
32.3	141.0
32.2	131.0
32.1	120.0
32.0	127.0
31.9	127.0
31.8	144.0
31.7	149.0
31.6	139.0
31.5	145.0
31.4	141.0
31.3	154.0
31.2	131.0
31.1	120.0
31.0	138.0
30.9	140.0
30.8	126.0
30.7	124.0
30.6	139.0
30.5	147.0
30.4	137.0
30.3	142.0
30.2	134.0
30.1	143.0
30.0	139.0
29.9	144.0
29.8	135.0
29.7	136.0
29.6	146.0
29.5	133.0
29.4	117.0
29.3	127.0
29.2	146.0
29.1	148.0
29.0	152.0
28.9	131.0
28.8	122.0
28.7	153.0
28.6	149.0
28.5	131.0
28.4	147.0
28.3	148.0
28.2	154.0
28.1	144.0
28.0	152.0
27.9	147.0
27.8	158.0
27.7	166.0
27.6	139.0
27.5	151.0
27.4	156.0
27.3	163.0
27.2	146.0
27.1	169.0
27.0	156.0
26.9	156.0
26.8	157.0
26.7	161.0
26.6	169.0
26.5	152.0
26.4	179.0
26.3	179.0
26.2	173.0
26.1	180.0
26.0	161.0
25.9	170.0
25.8	171.0
25.7	162.0
25.6	168.0
25.5	173.0
25.4	181.0
25.3	164.0
25.2	191.0
25.1	185.0
25.0	188.0
24.9	179.0
24.8	184.0
24.7	192.0
24.6	177.0
24.5	186.0
24.4	199.0
24.3	202.0
24.2	186.0
24.1	199.0
24.0	199.0
23.9	176.0
23.8	202.0
23.7	198.0
23.6	191.0
23.5	186.0
23.4	190.0
23.3	175.0
23.2	187.0
23.1	184.0
23.0	186.0
22.9	195.0
22.8	222.0
22.7	203.0
22.6	213.0
22.5	234.0
22.4	210.0
22.3	203.0
22.2	205.0
22.1	218.0
22.0	223.0
21.9	228.0
21.8	219.0
21.7	256.0
21.6	264.0
21.5	242.0
21.4	253.0
21.3	259.0
21.2	286.0
21.1	265.0
21.0	288.0
20.9	271.0
20.8	270.0
20.7	294.0
20.6	301.0
20.5	314.0
20.4	316.0
20.3	299.0
20.2	296.0
20.1	325.0
20.0	309.0
19.9	306.0
19.8	301.0
19.7	300.0
19.6	308.0
19.5	309.0
19.4	327.0
19.3	327.0
19.2	330.0
19.1	328.0
19.0	331.0