File: XPS/Casa format/HT CP 19 Ap location C1 in image_HTCP19Apwide_wide.txt
BE/eV	PE: 160.0 eV
1200.0	22946.0
1199.0	23092.0
1198.0	22746.0
1197.0	22631.0
1196.0	23028.0
1195.0	23059.0
1194.0	22881.0
1193.0	22804.0
1192.0	22980.0
1191.0	23116.0
1190.0	23163.0
1189.0	22932.0
1188.0	22924.0
1187.0	23238.0
1186.0	23198.0
1185.0	23146.0
1184.0	23184.0
1183.0	23118.0
1182.0	23275.0
1181.0	23227.0
1180.0	23014.0
1179.0	23309.0
1178.0	23343.0
1177.0	23116.0
1176.0	23576.0
1175.0	23459.0
1174.0	23516.0
1173.0	23444.0
1172.0	23630.0
1171.0	23638.0
1170.0	23669.0
1169.0	23406.0
1168.0	23656.0
1167.0	23759.0
1166.0	23675.0
1165.0	23638.0
1164.0	23922.0
1163.0	23948.0
1162.0	24007.0
1161.0	23754.0
1160.0	23732.0
1159.0	23872.0
1158.0	23969.0
1157.0	24072.0
1156.0	23989.0
1155.0	24007.0
1154.0	23934.0
1153.0	23920.0
1152.0	23745.0
1151.0	23841.0
1150.0	23898.0
1149.0	23903.0
1148.0	23730.0
1147.0	24042.0
1146.0	24024.0
1145.0	24064.0
1144.0	24096.0
1143.0	24433.0
1142.0	24134.0
1141.0	24181.0
1140.0	24161.0
1139.0	24123.0
1138.0	24086.0
1137.0	24403.0
1136.0	24136.0
1135.0	24351.0
1134.0	24290.0
1133.0	24216.0
1132.0	24573.0
1131.0	24867.0
1130.0	24642.0
1129.0	24590.0
1128.0	24377.0
1127.0	24600.0
1126.0	24580.0
1125.0	24408.0
1124.0	24661.0
1123.0	24737.0
1122.0	24845.0
1121.0	24813.0
1120.0	25048.0
1119.0	24894.0
1118.0	25054.0
1117.0	24990.0
1116.0	25053.0
1115.0	24838.0
1114.0	24969.0
1113.0	24895.0
1112.0	25072.0
1111.0	25330.0
1110.0	25425.0
1109.0	25215.0
1108.0	25290.0
1107.0	25405.0
1106.0	25377.0
1105.0	25589.0
1104.0	25264.0
1103.0	25312.0
1102.0	25423.0
1101.0	25526.0
1100.0	25432.0
1099.0	25682.0
1098.0	25591.0
1097.0	25544.0
1096.0	25853.0
1095.0	25703.0
1094.0	25757.0
1093.0	25768.0
1092.0	25754.0
1091.0	25795.0
1090.0	25700.0
1089.0	25654.0
1088.0	25663.0
1087.0	25829.0
1086.0	25913.0
1085.0	25896.0
1084.0	25969.0
1083.0	25957.0
1082.0	25974.0
1081.0	26219.0
1080.0	26299.0
1079.0	26206.0
1078.0	26190.0
1077.0	26237.0
1076.0	26356.0
1075.0	26191.0
1074.0	26258.0
1073.0	26414.0
1072.0	26561.0
1071.0	26656.0
1070.0	26625.0
1069.0	26576.0
1068.0	26523.0
1067.0	26853.0
1066.0	26874.0
1065.0	27048.0
1064.0	26817.0
1063.0	26900.0
1062.0	26772.0
1061.0	26859.0
1060.0	26817.0
1059.0	26723.0
1058.0	26992.0
1057.0	26825.0
1056.0	26977.0
1055.0	27042.0
1054.0	27300.0
1053.0	27195.0
1052.0	27441.0
1051.0	27291.0
1050.0	27330.0
1049.0	27390.0
1048.0	27404.0
1047.0	27623.0
1046.0	27412.0
1045.0	27273.0
1044.0	27389.0
1043.0	27146.0
1042.0	27312.0
1041.0	27355.0
1040.0	27632.0
1039.0	27666.0
1038.0	27819.0
1037.0	27839.0
1036.0	27731.0
1035.0	27805.0
1034.0	28014.0
1033.0	28160.0
1032.0	28051.0
1031.0	28079.0
1030.0	28299.0
1029.0	28321.0
1028.0	28052.0
1027.0	27959.0
1026.0	28200.0
1025.0	28216.0
1024.0	28264.0
1023.0	28477.0
1022.0	28624.0
1021.0	28528.0
1020.0	28801.0
1019.0	28988.0
1018.0	29026.0
1017.0	29077.0
1016.0	28817.0
1015.0	28796.0
1014.0	28969.0
1013.0	29032.0
1012.0	29111.0
1011.0	29210.0
1010.0	29299.0
1009.0	29385.0
1008.0	29536.0
1007.0	29632.0
1006.0	29734.0
1005.0	29626.0
1004.0	29631.0
1003.0	30010.0
1002.0	30019.0
1001.0	30348.0
1000.0	30759.0
999.0	30668.0
998.0	30787.0
997.0	30882.0
996.0	31101.0
995.0	30632.0
994.0	30655.0
993.0	30587.0
992.0	30373.0
991.0	30492.0
990.0	30421.0
989.0	30273.0
988.0	30406.0
987.0	30307.0
986.0	30729.0
985.0	30712.0
984.0	30747.0
983.0	31048.0
982.0	31342.0
981.0	31606.0
980.0	31995.0
979.0	32744.0
978.0	33297.0
977.0	33217.0
976.0	33828.0
975.0	33755.0
974.0	33332.0
973.0	33643.0
972.0	33433.0
971.0	33031.0
970.0	32417.0
969.0	31926.0
968.0	31461.0
967.0	30841.0
966.0	30408.0
965.0	29937.0
964.0	29041.0
963.0	28819.0
962.0	28911.0
961.0	28873.0
960.0	28712.0
959.0	28596.0
958.0	28602.0
957.0	28932.0
956.0	28588.0
955.0	28625.0
954.0	28674.0
953.0	28527.0
952.0	28458.0
951.0	28660.0
950.0	28843.0
949.0	28992.0
948.0	28863.0
947.0	28660.0
946.0	28553.0
945.0	28711.0
944.0	28891.0
943.0	28657.0
942.0	28813.0
941.0	28928.0
940.0	29046.0
939.0	28948.0
938.0	28932.0
937.0	28686.0
936.0	29076.0
935.0	29168.0
934.0	28813.0
933.0	28937.0
932.0	29202.0
931.0	29140.0
930.0	29107.0
929.0	29094.0
928.0	29098.0
927.0	29145.0
926.0	29269.0
925.0	29141.0
924.0	29399.0
923.0	29165.0
922.0	29180.0
921.0	29337.0
920.0	29126.0
919.0	29454.0
918.0	29669.0
917.0	29646.0
916.0	29361.0
915.0	29384.0
914.0	29271.0
913.0	29564.0
912.0	29558.0
911.0	29678.0
910.0	29779.0
909.0	29826.0
908.0	29488.0
907.0	29619.0
906.0	29613.0
905.0	29900.0
904.0	29658.0
903.0	29755.0
902.0	29889.0
901.0	29852.0
900.0	29947.0
899.0	29972.0
898.0	29796.0
897.0	29929.0
896.0	29884.0
895.0	29898.0
894.0	30196.0
893.0	30140.0
892.0	30103.0
891.0	30148.0
890.0	30198.0
889.0	30121.0
888.0	30056.0
887.0	30144.0
886.0	30189.0
885.0	30283.0
884.0	30310.0
883.0	30414.0
882.0	30363.0
881.0	30269.0
880.0	30289.0
879.0	30059.0
878.0	30069.0
877.0	30392.0
876.0	30368.0
875.0	30195.0
874.0	30606.0
873.0	30604.0
872.0	30382.0
871.0	30608.0
870.0	30744.0
869.0	30479.0
868.0	30468.0
867.0	30555.0
866.0	30474.0
865.0	30810.0
864.0	30827.0
863.0	30508.0
862.0	30611.0
861.0	30697.0
860.0	30842.0
859.0	30939.0
858.0	30732.0
857.0	30727.0
856.0	31005.0
855.0	30776.0
854.0	31017.0
853.0	30884.0
852.0	31140.0
851.0	31353.0
850.0	31069.0
849.0	31189.0
848.0	30672.0
847.0	30863.0
846.0	31188.0
845.0	31222.0
844.0	31144.0
843.0	31250.0
842.0	31139.0
841.0	31301.0
840.0	31332.0
839.0	31193.0
838.0	31059.0
837.0	31167.0
836.0	31224.0
835.0	31577.0
834.0	31559.0
833.0	31615.0
832.0	31540.0
831.0	31543.0
830.0	31398.0
829.0	31592.0
828.0	31511.0
827.0	31704.0
826.0	31371.0
825.0	31476.0
824.0	31425.0
823.0	31636.0
822.0	31639.0
821.0	31965.0
820.0	31794.0
819.0	31962.0
818.0	31848.0
817.0	31813.0
816.0	32175.0
815.0	32033.0
814.0	31822.0
813.0	31925.0
812.0	31742.0
811.0	31931.0
810.0	31874.0
809.0	31915.0
808.0	32107.0
807.0	32012.0
806.0	31832.0
805.0	32101.0
804.0	32253.0
803.0	31977.0
802.0	32280.0
801.0	31989.0
800.0	31941.0
799.0	32108.0
798.0	32044.0
797.0	32222.0
796.0	32327.0
795.0	32100.0
794.0	32202.0
793.0	32374.0
792.0	32407.0
791.0	32170.0
790.0	32238.0
789.0	32369.0
788.0	32360.0
787.0	32543.0
786.0	32417.0
785.0	32393.0
784.0	32339.0
783.0	32600.0
782.0	32498.0
781.0	32245.0
780.0	32489.0
779.0	32764.0
778.0	32718.0
777.0	32722.0
776.0	32657.0
775.0	32548.0
774.0	32651.0
773.0	32762.0
772.0	32679.0
771.0	32748.0
770.0	32647.0
769.0	32939.0
768.0	33206.0
767.0	33057.0
766.0	33053.0
765.0	32960.0
764.0	33053.0
763.0	32897.0
762.0	32774.0
761.0	32929.0
760.0	33013.0
759.0	33115.0
758.0	33171.0
757.0	33045.0
756.0	32948.0
755.0	33333.0
754.0	33449.0
753.0	33352.0
752.0	33026.0
751.0	33017.0
750.0	32775.0
749.0	33165.0
748.0	32873.0
747.0	33315.0
746.0	33097.0
745.0	33064.0
744.0	33188.0
743.0	33400.0
742.0	33122.0
741.0	33179.0
740.0	33262.0
739.0	33555.0
738.0	33272.0
737.0	33157.0
736.0	33430.0
735.0	33290.0
734.0	33577.0
733.0	33545.0
732.0	33612.0
731.0	33676.0
730.0	33537.0
729.0	33692.0
728.0	33696.0
727.0	33633.0
726.0	33627.0
725.0	33928.0
724.0	33916.0
723.0	33487.0
722.0	33914.0
721.0	34022.0
720.0	34301.0
719.0	34073.0
718.0	33788.0
717.0	33972.0
716.0	33514.0
715.0	34210.0
714.0	34214.0
713.0	33935.0
712.0	33754.0
711.0	33734.0
710.0	33982.0
709.0	34150.0
708.0	34141.0
707.0	34114.0
706.0	34028.0
705.0	33995.0
704.0	34129.0
703.0	34093.0
702.0	34222.0
701.0	34293.0
700.0	34106.0
699.0	34195.0
698.0	34376.0
697.0	34321.0
696.0	34250.0
695.0	34408.0
694.0	34133.0
693.0	34308.0
692.0	34337.0
691.0	34494.0
690.0	34380.0
689.0	34371.0
688.0	34312.0
687.0	34424.0
686.0	34379.0
685.0	34567.0
684.0	34230.0
683.0	34374.0
682.0	34488.0
681.0	34739.0
680.0	35055.0
679.0	34640.0
678.0	34950.0
677.0	34550.0
676.0	34475.0
675.0	34707.0
674.0	34918.0
673.0	34808.0
672.0	34944.0
671.0	34948.0
670.0	34549.0
669.0	34949.0
668.0	34873.0
667.0	34968.0
666.0	34899.0
665.0	34757.0
664.0	34857.0
663.0	34969.0
662.0	34938.0
661.0	35196.0
660.0	35372.0
659.0	35169.0
658.0	34788.0
657.0	34984.0
656.0	35409.0
655.0	35434.0
654.0	35251.0
653.0	34953.0
652.0	35180.0
651.0	35294.0
650.0	35411.0
649.0	35162.0
648.0	34977.0
647.0	35139.0
646.0	35392.0
645.0	35458.0
644.0	35323.0
643.0	35196.0
642.0	35243.0
641.0	35354.0
640.0	35424.0
639.0	35576.0
638.0	35654.0
637.0	35633.0
636.0	35495.0
635.0	35687.0
634.0	35707.0
633.0	35564.0
632.0	35577.0
631.0	35612.0
630.0	35646.0
629.0	35710.0
628.0	35570.0
627.0	35599.0
626.0	35418.0
625.0	35721.0
624.0	35666.0
623.0	35801.0
622.0	35937.0
621.0	35987.0
620.0	36134.0
619.0	35976.0
618.0	35861.0
617.0	35585.0
616.0	35860.0
615.0	35912.0
614.0	36140.0
613.0	35821.0
612.0	35926.0
611.0	36050.0
610.0	36393.0
609.0	36223.0
608.0	36597.0
607.0	36347.0
606.0	36204.0
605.0	36302.0
604.0	36369.0
603.0	36653.0
602.0	36330.0
601.0	36561.0
600.0	36426.0
599.0	36464.0
598.0	36425.0
597.0	36668.0
596.0	36839.0
595.0	36818.0
594.0	36491.0
593.0	36393.0
592.0	36630.0
591.0	36660.0
590.0	36532.0
589.0	36672.0
588.0	36755.0
587.0	36687.0
586.0	36681.0
585.0	36878.0
584.0	36626.0
583.0	36840.0
582.0	36990.0
581.0	37076.0
580.0	36888.0
579.0	36583.0
578.0	37038.0
577.0	36981.0
576.0	36997.0
575.0	37038.0
574.0	37241.0
573.0	37345.0
572.0	37595.0
571.0	37164.0
570.0	37143.0
569.0	37448.0
568.0	37285.0
567.0	37385.0
566.0	37531.0
565.0	37331.0
564.0	37574.0
563.0	37667.0
562.0	37630.0
561.0	37715.0
560.0	38019.0
559.0	37947.0
558.0	37826.0
557.0	37925.0
556.0	37832.0
555.0	37914.0
554.0	38148.0
553.0	38334.0
552.0	38109.0
551.0	37597.0
550.0	37746.0
549.0	37654.0
548.0	37686.0
547.0	37620.0
546.0	37710.0
545.0	37756.0
544.0	37810.0
543.0	37715.0
542.0	37613.0
541.0	37938.0
540.0	38035.0
539.0	38159.0
538.0	38640.0
537.0	39120.0
536.0	39595.0
535.0	40479.0
534.0	42819.0
533.0	46315.0
532.0	49197.0
531.0	48231.0
530.0	44142.0
529.0	40325.0
528.0	38122.0
527.0	37245.0
526.0	36968.0
525.0	37046.0
524.0	37145.0
523.0	37046.0
522.0	37076.0
521.0	37160.0
520.0	37104.0
519.0	37028.0
518.0	36947.0
517.0	37293.0
516.0	37069.0
515.0	37091.0
514.0	37121.0
513.0	37218.0
512.0	37144.0
511.0	37117.0
510.0	37254.0
509.0	37343.0
508.0	37388.0
507.0	36946.0
506.0	37090.0
505.0	37581.0
504.0	37074.0
503.0	37242.0
502.0	37724.0
501.0	37334.0
500.0	37569.0
499.0	37103.0
498.0	37215.0
497.0	37186.0
496.0	37502.0
495.0	37451.0
494.0	37572.0
493.0	37648.0
492.0	37611.0
491.0	37895.0
490.0	37813.0
489.0	37868.0
488.0	37758.0
487.0	37656.0
486.0	37776.0
485.0	37877.0
484.0	37723.0
483.0	37672.0
482.0	37909.0
481.0	38138.0
480.0	37547.0
479.0	37667.0
478.0	38264.0
477.0	37811.0
476.0	38008.0
475.0	38151.0
474.0	38046.0
473.0	38044.0
472.0	38001.0
471.0	38345.0
470.0	38226.0
469.0	38453.0
468.0	38309.0
467.0	38095.0
466.0	38103.0
465.0	38320.0
464.0	38396.0
463.0	38401.0
462.0	38127.0
461.0	38266.0
460.0	38332.0
459.0	38423.0
458.0	38610.0
457.0	38713.0
456.0	38513.0
455.0	38519.0
454.0	38282.0
453.0	38433.0
452.0	38828.0
451.0	38900.0
450.0	38539.0
449.0	38698.0
448.0	38885.0
447.0	38784.0
446.0	38954.0
445.0	38715.0
444.0	38855.0
443.0	39168.0
442.0	38618.0
441.0	38929.0
440.0	39002.0
439.0	39043.0
438.0	38740.0
437.0	39185.0
436.0	38939.0
435.0	39169.0
434.0	39431.0
433.0	39272.0
432.0	39223.0
431.0	39489.0
430.0	39444.0
429.0	39507.0
428.0	39612.0
427.0	39482.0
426.0	39541.0
425.0	39533.0
424.0	39461.0
423.0	39248.0
422.0	39372.0
421.0	39447.0
420.0	39407.0
419.0	39789.0
418.0	39714.0
417.0	40042.0
416.0	39896.0
415.0	39888.0
414.0	39783.0
413.0	39846.0
412.0	40013.0
411.0	40142.0
410.0	40152.0
409.0	40018.0
408.0	40284.0
407.0	40212.0
406.0	40251.0
405.0	40188.0
404.0	40085.0
403.0	40370.0
402.0	40474.0
401.0	40556.0
400.0	40590.0
399.0	40438.0
398.0	40319.0
397.0	40374.0
396.0	40535.0
395.0	40416.0
394.0	40518.0
393.0	40651.0
392.0	40755.0
391.0	40696.0
390.0	40853.0
389.0	40649.0
388.0	40493.0
387.0	40674.0
386.0	40858.0
385.0	40744.0
384.0	41091.0
383.0	41069.0
382.0	40842.0
381.0	41184.0
380.0	41205.0
379.0	41226.0
378.0	41231.0
377.0	41231.0
376.0	41415.0
375.0	41549.0
374.0	41674.0
373.0	41442.0
372.0	41594.0
371.0	41535.0
370.0	41634.0
369.0	41763.0
368.0	41332.0
367.0	41556.0
366.0	41785.0
365.0	41486.0
364.0	41351.0
363.0	41577.0
362.0	41879.0
361.0	41878.0
360.0	41968.0
359.0	42240.0
358.0	41819.0
357.0	42058.0
356.0	42049.0
355.0	42137.0
354.0	42470.0
353.0	42894.0
352.0	42990.0
351.0	42954.0
350.0	43419.0
349.0	43265.0
348.0	43504.0
347.0	43847.0
346.0	43786.0
345.0	43700.0
344.0	43880.0
343.0	43944.0
342.0	43813.0
341.0	43600.0
340.0	43520.0
339.0	43268.0
338.0	42729.0
337.0	42407.0
336.0	42054.0
335.0	41529.0
334.0	40889.0
333.0	40429.0
332.0	40655.0
331.0	40404.0
330.0	40200.0
329.0	40358.0
328.0	40890.0
327.0	41482.0
326.0	42059.0
325.0	42913.0
324.0	43644.0
323.0	44790.0
322.0	45904.0
321.0	46694.0
320.0	47364.0
319.0	47825.0
318.0	48494.0
317.0	49020.0
316.0	49484.0
315.0	49466.0
314.0	49681.0
313.0	49432.0
312.0	48738.0
311.0	47734.0
310.0	46375.0
309.0	44582.0
308.0	41954.0
307.0	39213.0
306.0	36772.0
305.0	34460.0
304.0	31948.0
303.0	29946.0
302.0	27594.0
301.0	25671.0
300.0	24212.0
299.0	23236.0
298.0	22806.0
297.0	22980.0
296.0	23816.0
295.0	25370.0
294.0	28308.0
293.0	31452.0
292.0	36260.0
291.0	41723.0
290.0	44887.0
289.0	45493.0
288.0	47235.0
287.0	53851.0
286.0	74377.0
285.0	137235.0
284.0	240862.0
283.0	169888.0
282.0	43112.0
281.0	8367.0
280.0	4958.0
279.0	3546.0
278.0	2576.0
277.0	2022.0
276.0	1810.0
275.0	1700.0
274.0	1660.0
273.0	1576.0
272.0	1550.0
271.0	1560.0
270.0	1524.0
269.0	1500.0
268.0	1431.0
267.0	1468.0
266.0	1409.0
265.0	1408.0
264.0	1440.0
263.0	1435.0
262.0	1427.0
261.0	1384.0
260.0	1391.0
259.0	1352.0
258.0	1415.0
257.0	1406.0
256.0	1413.0
255.0	1404.0
254.0	1410.0
253.0	1465.0
252.0	1408.0
251.0	1389.0
250.0	1387.0
249.0	1458.0
248.0	1428.0
247.0	1394.0
246.0	1390.0
245.0	1396.0
244.0	1404.0
243.0	1446.0
242.0	1387.0
241.0	1446.0
240.0	1419.0
239.0	1377.0
238.0	1385.0
237.0	1370.0
236.0	1417.0
235.0	1403.0
234.0	1400.0
233.0	1408.0
232.0	1365.0
231.0	1418.0
230.0	1423.0
229.0	1400.0
228.0	1384.0
227.0	1377.0
226.0	1360.0
225.0	1379.0
224.0	1430.0
223.0	1443.0
222.0	1410.0
221.0	1410.0
220.0	1404.0
219.0	1456.0
218.0	1500.0
217.0	1431.0
216.0	1404.0
215.0	1419.0
214.0	1384.0
213.0	1380.0
212.0	1478.0
211.0	1453.0
210.0	1400.0
209.0	1405.0
208.0	1415.0
207.0	1469.0
206.0	1455.0
205.0	1431.0
204.0	1397.0
203.0	1421.0
202.0	1426.0
201.0	1484.0
200.0	1445.0
199.0	1457.0
198.0	1418.0
197.0	1394.0
196.0	1439.0
195.0	1392.0
194.0	1430.0
193.0	1383.0
192.0	1477.0
191.0	1466.0
190.0	1410.0
189.0	1378.0
188.0	1390.0
187.0	1413.0
186.0	1448.0
185.0	1454.0
184.0	1447.0
183.0	1432.0
182.0	1460.0
181.0	1476.0
180.0	1459.0
179.0	1468.0
178.0	1492.0
177.0	1449.0
176.0	1462.0
175.0	1503.0
174.0	1463.0
173.0	1433.0
172.0	1468.0
171.0	1483.0
170.0	1515.0
169.0	1455.0
168.0	1508.0
167.0	1494.0
166.0	1476.0
165.0	1473.0
164.0	1452.0
163.0	1437.0
162.0	1449.0
161.0	1424.0
160.0	1403.0
159.0	1451.0
158.0	1539.0
157.0	1536.0
156.0	1506.0
155.0	1704.0
154.0	1772.0
153.0	1820.0
152.0	1855.0
151.0	1747.0
150.0	1582.0
149.0	1473.0
148.0	1451.0
147.0	1425.0
146.0	1487.0
145.0	1484.0
144.0	1467.0
143.0	1453.0
142.0	1431.0
141.0	1440.0
140.0	1505.0
139.0	1442.0
138.0	1532.0
137.0	1501.0
136.0	1532.0
135.0	1490.0
134.0	1499.0
133.0	1499.0
132.0	1459.0
131.0	1495.0
130.0	1546.0
129.0	1482.0
128.0	1467.0
127.0	1493.0
126.0	1492.0
125.0	1511.0
124.0	1515.0
123.0	1507.0
122.0	1484.0
121.0	1521.0
120.0	1476.0
119.0	1461.0
118.0	1524.0
117.0	1498.0
116.0	1505.0
115.0	1498.0
114.0	1434.0
113.0	1496.0
112.0	1480.0
111.0	1559.0
110.0	1466.0
109.0	1504.0
108.0	1512.0
107.0	1510.0
106.0	1499.0
105.0	1534.0
104.0	1675.0
103.0	1809.0
102.0	1939.0
101.0	1846.0
100.0	1657.0
99.0	1554.0
98.0	1454.0
97.0	1460.0
96.0	1445.0
95.0	1483.0
94.0	1508.0
93.0	1500.0
92.0	1449.0
91.0	1508.0
90.0	1512.0
89.0	1531.0
88.0	1523.0
87.0	1518.0
86.0	1523.0
85.0	1447.0
84.0	1474.0
83.0	1447.0
82.0	1488.0
81.0	1559.0
80.0	1535.0
79.0	1552.0
78.0	1477.0
77.0	1482.0
76.0	1515.0
75.0	1598.0
74.0	1589.0
73.0	1544.0
72.0	1610.0
71.0	1581.0
70.0	1530.0
69.0	1537.0
68.0	1550.0
67.0	1514.0
66.0	1525.0
65.0	1469.0
64.0	1469.0
63.0	1464.0
62.0	1444.0
61.0	1458.0
60.0	1474.0
59.0	1555.0
58.0	1575.0
57.0	1553.0
56.0	1573.0
55.0	1579.0
54.0	1700.0
53.0	1680.0
52.0	1700.0
51.0	1700.0
50.0	1764.0
49.0	1837.0
48.0	1836.0
47.0	1829.0
46.0	1916.0
45.0	1864.0
44.0	1780.0
43.0	1822.0
42.0	1803.0
41.0	1750.0
40.0	1693.0
39.0	1630.0
38.0	1594.0
37.0	1549.0
36.0	1452.0
35.0	1410.0
34.0	1364.0
33.0	1293.0
32.0	1293.0
31.0	1329.0
30.0	1343.0
29.0	1346.0
28.0	1425.0
27.0	1502.0
26.0	1516.0
25.0	1711.0
24.0	1768.0
23.0	1906.0
22.0	2111.0
21.0	2494.0
20.0	2777.0
19.0	2987.0
18.0	2988.0
17.0	3031.0
16.0	2884.0
15.0	2645.0
14.0	2385.0
13.0	2249.0
12.0	2074.0
11.0	1744.0
10.0	1516.0
9.0	1403.0
8.0	1219.0
7.0	1054.0
6.0	764.0
5.0	558.0
4.0	358.0
3.0	251.0
2.0	168.0
1.0	92.0
0.0	39.0
-1.0	12.0
-2.0	4.0
-3.0	3.0
-4.0	2.0
-5.0	1.0