File: XPS/Casa format/MX-HT 0p1 20Ap location X1 in image_MXHT0p120ApCl2s_Cl2s.txt
BE/eV	PE: 20.0 eV
285.0	1754.0
284.9	1933.0
284.8	2076.0
284.7	2295.0
284.6	2762.0
284.5	3311.0
284.4	4161.0
284.3	5689.0
284.2	7707.0
284.1	10255.0
284.0	12183.0
283.9	12615.0
283.8	10728.0
283.7	7543.0
283.6	4757.0
283.5	2657.0
283.4	1629.0
283.3	1163.0
283.2	870.0
283.1	663.0
283.0	544.0
282.9	460.0
282.8	374.0
282.7	349.0
282.6	300.0
282.5	286.0
282.4	275.0
282.3	257.0
282.2	256.0
282.1	258.0
282.0	258.0
281.9	312.0
281.8	339.0
281.7	419.0
281.6	497.0
281.5	620.0
281.4	713.0
281.3	708.0
281.2	579.0
281.1	384.0
281.0	247.0
280.9	225.0
280.8	152.0
280.7	118.0
280.6	119.0
280.5	102.0
280.4	104.0
280.3	103.0
280.2	94.0
280.1	109.0
280.0	95.0
279.9	97.0
279.8	92.0
279.7	107.0
279.6	100.0
279.5	105.0
279.4	111.0
279.3	97.0
279.2	95.0
279.1	106.0
279.0	90.0
278.9	88.0
278.8	93.0
278.7	90.0
278.6	105.0
278.5	89.0
278.4	102.0
278.3	93.0
278.2	96.0
278.1	98.0
278.0	96.0
277.9	96.0
277.8	91.0
277.7	81.0
277.6	76.0
277.5	79.0
277.4	78.0
277.3	92.0
277.2	83.0
277.1	83.0
277.0	102.0
276.9	94.0
276.8	89.0
276.7	94.0
276.6	89.0
276.5	98.0
276.4	97.0
276.3	94.0
276.2	92.0
276.1	77.0
276.0	85.0
275.9	81.0
275.8	76.0
275.7	83.0
275.6	102.0
275.5	90.0
275.4	93.0
275.3	77.0
275.2	81.0
275.1	80.0
275.0	83.0
274.9	90.0
274.8	108.0
274.7	99.0
274.6	90.0
274.5	104.0
274.4	82.0
274.3	84.0
274.2	85.0
274.1	80.0
274.0	79.0
273.9	69.0
273.8	74.0
273.7	91.0
273.6	94.0
273.5	88.0
273.4	77.0
273.3	90.0
273.2	88.0
273.1	88.0
273.0	101.0
272.9	87.0
272.8	94.0
272.7	98.0
272.6	93.0
272.5	94.0
272.4	77.0
272.3	82.0
272.2	83.0
272.1	95.0
272.0	90.0
271.9	84.0
271.8	99.0
271.7	110.0
271.6	109.0
271.5	91.0
271.4	88.0
271.3	109.0
271.2	91.0
271.1	99.0
271.0	110.0
270.9	100.0
270.8	123.0
270.7	102.0
270.6	109.0
270.5	116.0
270.4	102.0
270.3	98.0
270.2	102.0
270.1	91.0
270.0	114.0
269.9	122.0
269.8	94.0
269.7	109.0
269.6	121.0
269.5	111.0
269.4	119.0
269.3	102.0
269.2	107.0
269.1	113.0
269.0	100.0
268.9	95.0
268.8	104.0
268.7	99.0
268.6	104.0
268.5	99.0
268.4	99.0
268.3	100.0
268.2	86.0
268.1	105.0
268.0	91.0
267.9	81.0
267.8	90.0
267.7	98.0
267.6	76.0
267.5	80.0
267.4	91.0
267.3	82.0
267.2	95.0
267.1	77.0
267.0	75.0
266.9	84.0
266.8	84.0
266.7	89.0
266.6	93.0
266.5	83.0
266.4	85.0
266.3	88.0
266.2	85.0
266.1	73.0
266.0	70.0
265.9	82.0
265.8	96.0
265.7	81.0
265.6	75.0
265.5	84.0
265.4	85.0
265.3	83.0
265.2	70.0
265.1	82.0
265.0	91.0
264.9	81.0
264.8	88.0
264.7	88.0
264.6	79.0
264.5	101.0
264.4	87.0
264.3	71.0
264.2	85.0
264.1	93.0
264.0	85.0
263.9	77.0
263.8	84.0
263.7	79.0
263.6	88.0
263.5	88.0
263.4	80.0
263.3	99.0
263.2	81.0
263.1	76.0
263.0	85.0
262.9	89.0
262.8	94.0
262.7	92.0
262.6	78.0
262.5	76.0
262.4	96.0
262.3	89.0
262.2	83.0
262.1	99.0
262.0	92.0
261.9	80.0
261.8	84.0
261.7	82.0
261.6	75.0
261.5	69.0
261.4	84.0
261.3	82.0
261.2	92.0
261.1	89.0
261.0	76.0
260.9	83.0
260.8	94.0
260.7	93.0
260.6	87.0
260.5	90.0
260.4	90.0
260.3	85.0
260.2	85.0
260.1	98.0
260.0	85.0
259.9	70.0
259.8	77.0
259.7	75.0
259.6	89.0
259.5	87.0
259.4	83.0
259.3	97.0
259.2	75.0
259.1	85.0
259.0	86.0
258.9	68.0
258.8	85.0
258.7	86.0
258.6	86.0
258.5	90.0
258.4	82.0
258.3	90.0
258.2	86.0
258.1	81.0
258.0	79.0
257.9	83.0
257.8	84.0
257.7	82.0
257.6	91.0
257.5	103.0
257.4	93.0
257.3	95.0
257.2	95.0
257.1	89.0
257.0	74.0
256.9	83.0
256.8	90.0
256.7	80.0
256.6	84.0
256.5	86.0
256.4	78.0
256.3	83.0
256.2	87.0
256.1	88.0
256.0	89.0
255.9	92.0
255.8	90.0
255.7	93.0
255.6	88.0
255.5	79.0
255.4	85.0
255.3	88.0
255.2	80.0
255.1	82.0
255.0	81.0