File: XPS/Casa format/MX-HT 0p5 20Ap location H1 in image_MXHT0p520ApCl2s_Cl2s.txt
BE/eV	PE: 20.0 eV
285.0	1223.0
284.9	1309.0
284.8	1408.0
284.7	1588.0
284.6	1803.0
284.5	2115.0
284.4	2596.0
284.3	3349.0
284.2	4400.0
284.1	5937.0
284.0	7111.0
283.9	7308.0
283.8	6311.0
283.7	4659.0
283.6	2929.0
283.5	1846.0
283.4	1271.0
283.3	966.0
283.2	708.0
283.1	584.0
283.0	518.0
282.9	466.0
282.8	428.0
282.7	402.0
282.6	380.0
282.5	400.0
282.4	376.0
282.3	367.0
282.2	390.0
282.1	402.0
282.0	447.0
281.9	496.0
281.8	602.0
281.7	786.0
281.6	1059.0
281.5	1362.0
281.4	1470.0
281.3	1382.0
281.2	1121.0
281.1	783.0
281.0	504.0
280.9	356.0
280.8	262.0
280.7	223.0
280.6	184.0
280.5	178.0
280.4	170.0
280.3	152.0
280.2	158.0
280.1	161.0
280.0	152.0
279.9	156.0
279.8	166.0
279.7	161.0
279.6	161.0
279.5	148.0
279.4	148.0
279.3	147.0
279.2	145.0
279.1	149.0
279.0	147.0
278.9	146.0
278.8	158.0
278.7	136.0
278.6	142.0
278.5	142.0
278.4	137.0
278.3	138.0
278.2	155.0
278.1	157.0
278.0	154.0
277.9	141.0
277.8	152.0
277.7	141.0
277.6	143.0
277.5	140.0
277.4	147.0
277.3	143.0
277.2	148.0
277.1	142.0
277.0	131.0
276.9	127.0
276.8	133.0
276.7	151.0
276.6	137.0
276.5	147.0
276.4	157.0
276.3	139.0
276.2	129.0
276.1	130.0
276.0	134.0
275.9	151.0
275.8	133.0
275.7	143.0
275.6	140.0
275.5	163.0
275.4	145.0
275.3	140.0
275.2	167.0
275.1	141.0
275.0	151.0
274.9	147.0
274.8	150.0
274.7	162.0
274.6	157.0
274.5	153.0
274.4	157.0
274.3	144.0
274.2	141.0
274.1	149.0
274.0	134.0
273.9	155.0
273.8	146.0
273.7	141.0
273.6	127.0
273.5	145.0
273.4	148.0
273.3	134.0
273.2	145.0
273.1	159.0
273.0	152.0
272.9	154.0
272.8	156.0
272.7	158.0
272.6	147.0
272.5	124.0
272.4	152.0
272.3	155.0
272.2	164.0
272.1	151.0
272.0	150.0
271.9	157.0
271.8	160.0
271.7	178.0
271.6	146.0
271.5	164.0
271.4	166.0
271.3	163.0
271.2	177.0
271.1	163.0
271.0	162.0
270.9	184.0
270.8	186.0
270.7	172.0
270.6	173.0
270.5	168.0
270.4	170.0
270.3	196.0
270.2	180.0
270.1	197.0
270.0	191.0
269.9	204.0
269.8	191.0
269.7	188.0
269.6	195.0
269.5	185.0
269.4	190.0
269.3	184.0
269.2	183.0
269.1	207.0
269.0	179.0
268.9	192.0
268.8	182.0
268.7	177.0
268.6	159.0
268.5	156.0
268.4	167.0
268.3	169.0
268.2	167.0
268.1	154.0
268.0	165.0
267.9	150.0
267.8	158.0
267.7	133.0
267.6	155.0
267.5	150.0
267.4	150.0
267.3	139.0
267.2	148.0
267.1	149.0
267.0	150.0
266.9	156.0
266.8	158.0
266.7	155.0
266.6	140.0
266.5	157.0
266.4	149.0
266.3	142.0
266.2	145.0
266.1	146.0
266.0	161.0
265.9	152.0
265.8	133.0
265.7	144.0
265.6	145.0
265.5	146.0
265.4	145.0
265.3	141.0
265.2	149.0
265.1	160.0
265.0	154.0
264.9	128.0
264.8	127.0
264.7	133.0
264.6	135.0
264.5	159.0
264.4	144.0
264.3	158.0
264.2	144.0
264.1	132.0
264.0	123.0
263.9	119.0
263.8	131.0
263.7	142.0
263.6	147.0
263.5	153.0
263.4	139.0
263.3	146.0
263.2	139.0
263.1	138.0
263.0	133.0
262.9	131.0
262.8	131.0
262.7	142.0
262.6	140.0
262.5	151.0
262.4	159.0
262.3	144.0
262.2	136.0
262.1	130.0
262.0	130.0
261.9	129.0
261.8	135.0
261.7	138.0
261.6	133.0
261.5	135.0
261.4	140.0
261.3	138.0
261.2	146.0
261.1	143.0
261.0	125.0
260.9	134.0
260.8	150.0
260.7	152.0
260.6	133.0
260.5	132.0
260.4	145.0
260.3	133.0
260.2	136.0
260.1	129.0
260.0	133.0
259.9	144.0
259.8	163.0
259.7	132.0
259.6	132.0
259.5	143.0
259.4	138.0
259.3	121.0
259.2	146.0
259.1	145.0
259.0	168.0
258.9	157.0
258.8	169.0
258.7	158.0
258.6	145.0
258.5	145.0
258.4	154.0
258.3	146.0
258.2	144.0
258.1	142.0
258.0	142.0
257.9	147.0
257.8	139.0
257.7	150.0
257.6	138.0
257.5	131.0
257.4	151.0
257.3	147.0
257.2	135.0
257.1	151.0
257.0	129.0
256.9	143.0
256.8	146.0
256.7	149.0
256.6	149.0
256.5	139.0
256.4	154.0
256.3	135.0
256.2	112.0
256.1	138.0
256.0	156.0
255.9	144.0
255.8	142.0
255.7	144.0
255.6	137.0
255.5	145.0
255.4	135.0
255.3	131.0
255.2	140.0
255.1	139.0
255.0	136.0