File: XPS/Casa format/MX-HT 0p1 20Ap location X1 in image_MXHT0p120Apwide_wide.txt
BE/eV	PE: 160.0 eV
1200.0	55185.0
1199.0	55063.0
1198.0	55182.0
1197.0	55186.0
1196.0	55484.0
1195.0	55123.0
1194.0	54944.0
1193.0	55441.0
1192.0	56002.0
1191.0	55734.0
1190.0	55981.0
1189.0	55913.0
1188.0	56250.0
1187.0	56327.0
1186.0	56280.0
1185.0	56594.0
1184.0	56877.0
1183.0	56442.0
1182.0	56841.0
1181.0	57456.0
1180.0	57237.0
1179.0	57499.0
1178.0	57894.0
1177.0	58221.0
1176.0	57953.0
1175.0	58398.0
1174.0	58601.0
1173.0	58101.0
1172.0	57991.0
1171.0	58428.0
1170.0	58767.0
1169.0	58915.0
1168.0	58469.0
1167.0	58732.0
1166.0	59133.0
1165.0	59451.0
1164.0	59975.0
1163.0	60100.0
1162.0	60450.0
1161.0	60374.0
1160.0	60315.0
1159.0	60603.0
1158.0	61156.0
1157.0	61473.0
1156.0	61860.0
1155.0	61605.0
1154.0	62164.0
1153.0	62234.0
1152.0	61910.0
1151.0	61559.0
1150.0	62331.0
1149.0	62243.0
1148.0	62304.0
1147.0	62310.0
1146.0	62510.0
1145.0	62163.0
1144.0	62161.0
1143.0	62306.0
1142.0	62739.0
1141.0	62860.0
1140.0	62767.0
1139.0	62689.0
1138.0	63140.0
1137.0	63893.0
1136.0	64367.0
1135.0	65243.0
1134.0	65687.0
1133.0	66028.0
1132.0	66384.0
1131.0	66309.0
1130.0	66303.0
1129.0	66196.0
1128.0	65529.0
1127.0	66061.0
1126.0	66677.0
1125.0	66875.0
1124.0	67143.0
1123.0	66947.0
1122.0	67612.0
1121.0	67028.0
1120.0	66394.0
1119.0	65579.0
1118.0	65498.0
1117.0	65523.0
1116.0	65623.0
1115.0	66378.0
1114.0	67067.0
1113.0	67234.0
1112.0	68184.0
1111.0	69074.0
1110.0	69760.0
1109.0	70546.0
1108.0	71326.0
1107.0	73005.0
1106.0	74473.0
1105.0	75773.0
1104.0	77278.0
1103.0	76871.0
1102.0	75131.0
1101.0	73553.0
1100.0	72015.0
1099.0	71248.0
1098.0	68870.0
1097.0	64487.0
1096.0	60472.0
1095.0	57446.0
1094.0	55962.0
1093.0	54830.0
1092.0	54037.0
1091.0	53088.0
1090.0	52665.0
1089.0	52303.0
1088.0	51837.0
1087.0	51896.0
1086.0	51525.0
1085.0	51148.0
1084.0	51231.0
1083.0	50968.0
1082.0	51347.0
1081.0	51740.0
1080.0	51506.0
1079.0	51989.0
1078.0	52159.0
1077.0	52784.0
1076.0	53244.0
1075.0	53699.0
1074.0	54587.0
1073.0	55113.0
1072.0	56124.0
1071.0	57680.0
1070.0	58947.0
1069.0	59459.0
1068.0	59236.0
1067.0	58419.0
1066.0	57009.0
1065.0	54874.0
1064.0	52094.0
1063.0	49671.0
1062.0	48787.0
1061.0	47804.0
1060.0	47491.0
1059.0	47121.0
1058.0	47122.0
1057.0	46979.0
1056.0	46630.0
1055.0	46942.0
1054.0	47167.0
1053.0	46780.0
1052.0	46859.0
1051.0	46829.0
1050.0	46884.0
1049.0	46947.0
1048.0	47361.0
1047.0	47535.0
1046.0	47293.0
1045.0	47499.0
1044.0	47593.0
1043.0	47821.0
1042.0	47762.0
1041.0	47878.0
1040.0	47921.0
1039.0	47984.0
1038.0	48591.0
1037.0	48758.0
1036.0	49053.0
1035.0	48741.0
1034.0	48638.0
1033.0	48237.0
1032.0	48419.0
1031.0	48188.0
1030.0	48039.0
1029.0	48034.0
1028.0	48114.0
1027.0	48023.0
1026.0	48150.0
1025.0	48248.0
1024.0	48351.0
1023.0	48471.0
1022.0	48248.0
1021.0	48699.0
1020.0	48715.0
1019.0	48786.0
1018.0	49090.0
1017.0	49282.0
1016.0	48826.0
1015.0	49362.0
1014.0	49694.0
1013.0	49520.0
1012.0	49310.0
1011.0	49432.0
1010.0	49460.0
1009.0	49639.0
1008.0	49753.0
1007.0	49950.0
1006.0	50157.0
1005.0	50330.0
1004.0	50197.0
1003.0	50589.0
1002.0	50985.0
1001.0	51362.0
1000.0	51634.0
999.0	51713.0
998.0	51915.0
997.0	52385.0
996.0	52516.0
995.0	52554.0
994.0	52938.0
993.0	52650.0
992.0	52555.0
991.0	52219.0
990.0	51668.0
989.0	51287.0
988.0	51217.0
987.0	50861.0
986.0	50714.0
985.0	51048.0
984.0	50995.0
983.0	50902.0
982.0	51531.0
981.0	51789.0
980.0	52473.0
979.0	53216.0
978.0	54455.0
977.0	56091.0
976.0	58075.0
975.0	59301.0
974.0	59953.0
973.0	59525.0
972.0	59188.0
971.0	57343.0
970.0	54569.0
969.0	51546.0
968.0	50180.0
967.0	48755.0
966.0	47874.0
965.0	47242.0
964.0	46370.0
963.0	45962.0
962.0	45780.0
961.0	45825.0
960.0	45402.0
959.0	45365.0
958.0	45384.0
957.0	45391.0
956.0	45408.0
955.0	45589.0
954.0	45182.0
953.0	45660.0
952.0	45420.0
951.0	45471.0
950.0	45416.0
949.0	45953.0
948.0	45859.0
947.0	46137.0
946.0	45588.0
945.0	45813.0
944.0	45646.0
943.0	45621.0
942.0	45767.0
941.0	45804.0
940.0	45861.0
939.0	46252.0
938.0	46094.0
937.0	46419.0
936.0	46046.0
935.0	46306.0
934.0	46344.0
933.0	46330.0
932.0	46160.0
931.0	46367.0
930.0	46895.0
929.0	46660.0
928.0	46837.0
927.0	46756.0
926.0	46668.0
925.0	46668.0
924.0	47173.0
923.0	46955.0
922.0	46677.0
921.0	47154.0
920.0	47565.0
919.0	47295.0
918.0	47357.0
917.0	47259.0
916.0	47714.0
915.0	47784.0
914.0	47437.0
913.0	47796.0
912.0	47596.0
911.0	47544.0
910.0	47963.0
909.0	47923.0
908.0	47797.0
907.0	47971.0
906.0	47929.0
905.0	47903.0
904.0	48303.0
903.0	48150.0
902.0	47916.0
901.0	48419.0
900.0	48786.0
899.0	48343.0
898.0	48506.0
897.0	48329.0
896.0	48424.0
895.0	48710.0
894.0	49093.0
893.0	49197.0
892.0	48980.0
891.0	48691.0
890.0	49186.0
889.0	48897.0
888.0	49133.0
887.0	49366.0
886.0	49464.0
885.0	49506.0
884.0	49589.0
883.0	49493.0
882.0	49755.0
881.0	49964.0
880.0	49763.0
879.0	50255.0
878.0	50043.0
877.0	50443.0
876.0	50423.0
875.0	50666.0
874.0	50942.0
873.0	50660.0
872.0	50584.0
871.0	50788.0
870.0	50546.0
869.0	50274.0
868.0	50036.0
867.0	50286.0
866.0	50315.0
865.0	50310.0
864.0	50414.0
863.0	50838.0
862.0	50781.0
861.0	50808.0
860.0	51023.0
859.0	51397.0
858.0	51988.0
857.0	52165.0
856.0	52742.0
855.0	53171.0
854.0	53592.0
853.0	52943.0
852.0	52121.0
851.0	51797.0
850.0	51306.0
849.0	50965.0
848.0	51016.0
847.0	51762.0
846.0	51998.0
845.0	51917.0
844.0	51697.0
843.0	51533.0
842.0	51374.0
841.0	51369.0
840.0	51190.0
839.0	51389.0
838.0	51605.0
837.0	52040.0
836.0	52488.0
835.0	52915.0
834.0	53512.0
833.0	53943.0
832.0	54196.0
831.0	55264.0
830.0	56539.0
829.0	58126.0
828.0	60759.0
827.0	61622.0
826.0	57053.0
825.0	52206.0
824.0	50819.0
823.0	50408.0
822.0	50011.0
821.0	49577.0
820.0	49597.0
819.0	50328.0
818.0	50245.0
817.0	49946.0
816.0	50062.0
815.0	50299.0
814.0	50469.0
813.0	50644.0
812.0	50324.0
811.0	50177.0
810.0	50542.0
809.0	50536.0
808.0	50203.0
807.0	50319.0
806.0	51089.0
805.0	50917.0
804.0	50425.0
803.0	50539.0
802.0	50350.0
801.0	50956.0
800.0	50741.0
799.0	50669.0
798.0	50806.0
797.0	51227.0
796.0	51121.0
795.0	51130.0
794.0	51242.0
793.0	50819.0
792.0	51190.0
791.0	51189.0
790.0	51203.0
789.0	51134.0
788.0	51464.0
787.0	51551.0
786.0	51819.0
785.0	51501.0
784.0	51317.0
783.0	51436.0
782.0	51594.0
781.0	51805.0
780.0	51939.0
779.0	52074.0
778.0	52032.0
777.0	52150.0
776.0	51867.0
775.0	52001.0
774.0	52246.0
773.0	52136.0
772.0	52360.0
771.0	52447.0
770.0	52507.0
769.0	52480.0
768.0	52487.0
767.0	52511.0
766.0	52466.0
765.0	52583.0
764.0	53089.0
763.0	53018.0
762.0	52774.0
761.0	52982.0
760.0	53162.0
759.0	53132.0
758.0	53071.0
757.0	52979.0
756.0	53578.0
755.0	53399.0
754.0	53534.0
753.0	53682.0
752.0	53334.0
751.0	53391.0
750.0	53516.0
749.0	53572.0
748.0	53681.0
747.0	53744.0
746.0	53705.0
745.0	53952.0
744.0	53832.0
743.0	54119.0
742.0	54394.0
741.0	54212.0
740.0	54489.0
739.0	54239.0
738.0	54354.0
737.0	54772.0
736.0	54596.0
735.0	54536.0
734.0	54856.0
733.0	55097.0
732.0	54988.0
731.0	54898.0
730.0	55085.0
729.0	55081.0
728.0	55064.0
727.0	54963.0
726.0	54959.0
725.0	55005.0
724.0	54632.0
723.0	54878.0
722.0	54972.0
721.0	54891.0
720.0	55299.0
719.0	55558.0
718.0	55489.0
717.0	55221.0
716.0	55879.0
715.0	55919.0
714.0	56102.0
713.0	56255.0
712.0	56228.0
711.0	56409.0
710.0	56652.0
709.0	56941.0
708.0	57052.0
707.0	56932.0
706.0	56943.0
705.0	56684.0
704.0	56680.0
703.0	56362.0
702.0	56006.0
701.0	55963.0
700.0	55499.0
699.0	55829.0
698.0	56037.0
697.0	56233.0
696.0	56324.0
695.0	55689.0
694.0	55869.0
693.0	55977.0
692.0	56201.0
691.0	56365.0
690.0	56504.0
689.0	57083.0
688.0	57794.0
687.0	59232.0
686.0	62709.0
685.0	71799.0
684.0	75384.0
683.0	66688.0
682.0	58316.0
681.0	56141.0
680.0	55507.0
679.0	55343.0
678.0	55597.0
677.0	55612.0
676.0	55827.0
675.0	55784.0
674.0	55378.0
673.0	55547.0
672.0	55848.0
671.0	55754.0
670.0	55643.0
669.0	55615.0
668.0	56066.0
667.0	56379.0
666.0	56370.0
665.0	56251.0
664.0	56376.0
663.0	56329.0
662.0	56511.0
661.0	56551.0
660.0	56610.0
659.0	56751.0
658.0	56895.0
657.0	56674.0
656.0	57144.0
655.0	56852.0
654.0	57225.0
653.0	57092.0
652.0	57174.0
651.0	57391.0
650.0	57051.0
649.0	57309.0
648.0	57594.0
647.0	57353.0
646.0	57345.0
645.0	57668.0
644.0	57718.0
643.0	57759.0
642.0	57887.0
641.0	57901.0
640.0	58320.0
639.0	58089.0
638.0	58398.0
637.0	58361.0
636.0	58165.0
635.0	58405.0
634.0	58579.0
633.0	58328.0
632.0	58602.0
631.0	59263.0
630.0	59417.0
629.0	59132.0
628.0	59369.0
627.0	59444.0
626.0	59467.0
625.0	59454.0
624.0	59589.0
623.0	59431.0
622.0	59453.0
621.0	60005.0
620.0	59864.0
619.0	59978.0
618.0	60002.0
617.0	60210.0
616.0	60346.0
615.0	60561.0
614.0	61045.0
613.0	60848.0
612.0	60752.0
611.0	60806.0
610.0	60976.0
609.0	60937.0
608.0	60456.0
607.0	61307.0
606.0	61224.0
605.0	61086.0
604.0	61243.0
603.0	61228.0
602.0	61278.0
601.0	61134.0
600.0	61354.0
599.0	61664.0
598.0	62277.0
597.0	62065.0
596.0	62357.0
595.0	62309.0
594.0	62383.0
593.0	62654.0
592.0	62573.0
591.0	62716.0
590.0	63142.0
589.0	63473.0
588.0	63561.0
587.0	63575.0
586.0	64229.0
585.0	64510.0
584.0	64578.0
583.0	64833.0
582.0	64828.0
581.0	65076.0
580.0	65083.0
579.0	65302.0
578.0	65465.0
577.0	65468.0
576.0	65090.0
575.0	64967.0
574.0	65001.0
573.0	64840.0
572.0	65069.0
571.0	64755.0
570.0	64790.0
569.0	65028.0
568.0	65598.0
567.0	66976.0
566.0	68028.0
565.0	69811.0
564.0	70828.0
563.0	72120.0
562.0	72160.0
561.0	71817.0
560.0	69587.0
559.0	66848.0
558.0	64221.0
557.0	62593.0
556.0	61467.0
555.0	60875.0
554.0	60502.0
553.0	59944.0
552.0	59704.0
551.0	59747.0
550.0	58867.0
549.0	58450.0
548.0	58491.0
547.0	58716.0
546.0	58696.0
545.0	58886.0
544.0	58797.0
543.0	58690.0
542.0	58331.0
541.0	58022.0
540.0	57853.0
539.0	57910.0
538.0	57556.0
537.0	57732.0
536.0	58561.0
535.0	59522.0
534.0	62065.0
533.0	67338.0
532.0	74386.0
531.0	80268.0
530.0	84385.0
529.0	79630.0
528.0	66271.0
527.0	57099.0
526.0	54694.0
525.0	54336.0
524.0	54526.0
523.0	54510.0
522.0	53911.0
521.0	53967.0
520.0	54345.0
519.0	54121.0
518.0	54037.0
517.0	54259.0
516.0	54362.0
515.0	54420.0
514.0	54401.0
513.0	55042.0
512.0	54809.0
511.0	54976.0
510.0	55321.0
509.0	55176.0
508.0	55510.0
507.0	55584.0
506.0	55594.0
505.0	55545.0
504.0	55924.0
503.0	56043.0
502.0	55399.0
501.0	55655.0
500.0	55373.0
499.0	55374.0
498.0	55490.0
497.0	54962.0
496.0	55084.0
495.0	55347.0
494.0	56034.0
493.0	55788.0
492.0	55746.0
491.0	56297.0
490.0	57012.0
489.0	56725.0
488.0	57479.0
487.0	58057.0
486.0	58232.0
485.0	58845.0
484.0	59304.0
483.0	60009.0
482.0	59966.0
481.0	60464.0
480.0	60817.0
479.0	61175.0
478.0	61192.0
477.0	61335.0
476.0	61483.0
475.0	61357.0
474.0	61208.0
473.0	61076.0
472.0	61251.0
471.0	61047.0
470.0	60310.0
469.0	59682.0
468.0	59206.0
467.0	59849.0
466.0	60602.0
465.0	62783.0
464.0	65444.0
463.0	67579.0
462.0	71288.0
461.0	74994.0
460.0	75104.0
459.0	73537.0
458.0	73387.0
457.0	73520.0
456.0	80615.0
455.0	87295.0
454.0	74748.0
453.0	50850.0
452.0	38405.0
451.0	35904.0
450.0	35528.0
449.0	35224.0
448.0	35173.0
447.0	34692.0
446.0	34682.0
445.0	34574.0
444.0	34645.0
443.0	34626.0
442.0	34776.0
441.0	34706.0
440.0	34755.0
439.0	34543.0
438.0	34535.0
437.0	34859.0
436.0	34650.0
435.0	34683.0
434.0	34585.0
433.0	34841.0
432.0	34777.0
431.0	34668.0
430.0	34641.0
429.0	34859.0
428.0	34940.0
427.0	34940.0
426.0	34719.0
425.0	34676.0
424.0	34913.0
423.0	34838.0
422.0	34957.0
421.0	35108.0
420.0	34927.0
419.0	34927.0
418.0	34976.0
417.0	34955.0
416.0	34869.0
415.0	34785.0
414.0	34975.0
413.0	35311.0
412.0	34941.0
411.0	34795.0
410.0	35008.0
409.0	35006.0
408.0	34740.0
407.0	35195.0
406.0	35236.0
405.0	35418.0
404.0	35644.0
403.0	35579.0
402.0	36013.0
401.0	36239.0
400.0	36309.0
399.0	36070.0
398.0	35694.0
397.0	35477.0
396.0	35404.0
395.0	35247.0
394.0	35218.0
393.0	35143.0
392.0	35084.0
391.0	35281.0
390.0	35405.0
389.0	35173.0
388.0	35330.0
387.0	35387.0
386.0	35579.0
385.0	35479.0
384.0	35558.0
383.0	35427.0
382.0	35570.0
381.0	35610.0
380.0	35722.0
379.0	35444.0
378.0	35500.0
377.0	35735.0
376.0	35765.0
375.0	35920.0
374.0	35891.0
373.0	35761.0
372.0	35469.0
371.0	35812.0
370.0	35916.0
369.0	35672.0
368.0	35853.0
367.0	35887.0
366.0	35810.0
365.0	35585.0
364.0	35950.0
363.0	35892.0
362.0	35708.0
361.0	35833.0
360.0	36002.0
359.0	35486.0
358.0	35704.0
357.0	35945.0
356.0	36332.0
355.0	36279.0
354.0	36015.0
353.0	36297.0
352.0	36660.0
351.0	36836.0
350.0	36794.0
349.0	36904.0
348.0	36816.0
347.0	36959.0
346.0	36794.0
345.0	36981.0
344.0	37199.0
343.0	36929.0
342.0	36916.0
341.0	37114.0
340.0	37173.0
339.0	36598.0
338.0	36249.0
337.0	35998.0
336.0	35885.0
335.0	35883.0
334.0	35281.0
333.0	35289.0
332.0	35318.0
331.0	34888.0
330.0	34757.0
329.0	35238.0
328.0	34999.0
327.0	35129.0
326.0	35726.0
325.0	36045.0
324.0	36780.0
323.0	37219.0
322.0	37579.0
321.0	38257.0
320.0	38953.0
319.0	39499.0
318.0	39790.0
317.0	40332.0
316.0	40473.0
315.0	40066.0
314.0	40410.0
313.0	40202.0
312.0	40090.0
311.0	39927.0
310.0	38896.0
309.0	37898.0
308.0	36244.0
307.0	34255.0
306.0	32480.0
305.0	31086.0
304.0	29125.0
303.0	27690.0
302.0	25858.0
301.0	24253.0
300.0	22755.0
299.0	22027.0
298.0	21324.0
297.0	21459.0
296.0	21829.0
295.0	22773.0
294.0	24516.0
293.0	26582.0
292.0	29370.0
291.0	33056.0
290.0	36015.0
289.0	37086.0
288.0	38424.0
287.0	42130.0
286.0	53920.0
285.0	87351.0
284.0	166501.0
283.0	150699.0
282.0	58658.0
281.0	21125.0
280.0	12719.0
279.0	6917.0
278.0	5391.0
277.0	4866.0
276.0	4659.0
275.0	4417.0
274.0	4425.0
273.0	4462.0
272.0	4479.0
271.0	4761.0
270.0	5128.0
269.0	5109.0
268.0	4904.0
267.0	4484.0
266.0	4315.0
265.0	4191.0
264.0	4109.0
263.0	4123.0
262.0	4187.0
261.0	4159.0
260.0	4074.0
259.0	4068.0
258.0	4143.0
257.0	4161.0
256.0	4185.0
255.0	4206.0
254.0	4246.0
253.0	4254.0
252.0	4119.0
251.0	4142.0
250.0	4191.0
249.0	4283.0
248.0	4189.0
247.0	4113.0
246.0	4246.0
245.0	4274.0
244.0	4212.0
243.0	4293.0
242.0	4224.0
241.0	4248.0
240.0	4091.0
239.0	4199.0
238.0	4204.0
237.0	4143.0
236.0	4109.0
235.0	4140.0
234.0	4173.0
233.0	4314.0
232.0	4345.0
231.0	4238.0
230.0	4313.0
229.0	4330.0
228.0	4229.0
227.0	4291.0
226.0	4390.0
225.0	4473.0
224.0	4390.0
223.0	4392.0
222.0	4372.0
221.0	4257.0
220.0	4344.0
219.0	4435.0
218.0	4408.0
217.0	4324.0
216.0	4424.0
215.0	4291.0
214.0	4298.0
213.0	4397.0
212.0	4372.0
211.0	4331.0
210.0	4300.0
209.0	4342.0
208.0	4396.0
207.0	4344.0
206.0	4326.0
205.0	4340.0
204.0	4398.0
203.0	4545.0
202.0	4670.0
201.0	5107.0
200.0	5806.0
199.0	6133.0
198.0	6117.0
197.0	5102.0
196.0	4455.0
195.0	4283.0
194.0	4219.0
193.0	4195.0
192.0	4328.0
191.0	4304.0
190.0	4236.0
189.0	4318.0
188.0	4331.0
187.0	4264.0
186.0	4274.0
185.0	4245.0
184.0	4236.0
183.0	4297.0
182.0	4317.0
181.0	4348.0
180.0	4315.0
179.0	4357.0
178.0	4448.0
177.0	4438.0
176.0	4414.0
175.0	4336.0
174.0	4329.0
173.0	4451.0
172.0	4349.0
171.0	4399.0
170.0	4517.0
169.0	4384.0
168.0	4521.0
167.0	4390.0
166.0	4414.0
165.0	4479.0
164.0	4442.0
163.0	4511.0
162.0	4581.0
161.0	4553.0
160.0	4568.0
159.0	4574.0
158.0	4558.0
157.0	4476.0
156.0	4555.0
155.0	4688.0
154.0	4836.0
153.0	4902.0
152.0	4945.0
151.0	4874.0
150.0	4737.0
149.0	4686.0
148.0	4528.0
147.0	4515.0
146.0	4582.0
145.0	4607.0
144.0	4685.0
143.0	4638.0
142.0	4653.0
141.0	4735.0
140.0	4758.0
139.0	4767.0
138.0	4735.0
137.0	4699.0
136.0	4650.0
135.0	4733.0
134.0	4780.0
133.0	4818.0
132.0	4857.0
131.0	4788.0
130.0	4795.0
129.0	4769.0
128.0	4752.0
127.0	4780.0
126.0	4875.0
125.0	4841.0
124.0	4950.0
123.0	4892.0
122.0	4835.0
121.0	4983.0
120.0	4869.0
119.0	4877.0
118.0	4997.0
117.0	5061.0
116.0	4950.0
115.0	5084.0
114.0	5110.0
113.0	5107.0
112.0	5033.0
111.0	5075.0
110.0	5027.0
109.0	5074.0
108.0	5142.0
107.0	5204.0
106.0	5130.0
105.0	5237.0
104.0	5194.0
103.0	5363.0
102.0	5565.0
101.0	5549.0
100.0	5565.0
99.0	5328.0
98.0	5172.0
97.0	5236.0
96.0	5094.0
95.0	5101.0
94.0	5183.0
93.0	5109.0
92.0	5329.0
91.0	5455.0
90.0	5541.0
89.0	5465.0
88.0	5592.0
87.0	5650.0
86.0	5704.0
85.0	5809.0
84.0	5708.0
83.0	5706.0
82.0	5732.0
81.0	5750.0
80.0	5792.0
79.0	5740.0
78.0	5662.0
77.0	5735.0
76.0	5660.0
75.0	5656.0
74.0	5704.0
73.0	5617.0
72.0	5410.0
71.0	5458.0
70.0	5349.0
69.0	5348.0
68.0	5294.0
67.0	5356.0
66.0	5494.0
65.0	5763.0
64.0	6007.0
63.0	6549.0
62.0	7133.0
61.0	7762.0
60.0	8274.0
59.0	8616.0
58.0	7896.0
57.0	6717.0
56.0	5855.0
55.0	5496.0
54.0	5291.0
53.0	5259.0
52.0	5280.0
51.0	5338.0
50.0	5247.0
49.0	5288.0
48.0	5211.0
47.0	5022.0
46.0	5127.0
45.0	5032.0
44.0	4996.0
43.0	4767.0
42.0	4823.0
41.0	5128.0
40.0	5320.0
39.0	5752.0
38.0	6827.0
37.0	8052.0
36.0	9126.0
35.0	10129.0
34.0	10586.0
33.0	8811.0
32.0	5509.0
31.0	3509.0
30.0	3012.0
29.0	2996.0
28.0	2847.0
27.0	2585.0
26.0	2328.0
25.0	2308.0
24.0	2429.0
23.0	2602.0
22.0	2994.0
21.0	3250.0
20.0	3227.0
19.0	2975.0
18.0	2839.0
17.0	2686.0
16.0	2678.0
15.0	2458.0
14.0	2249.0
13.0	2243.0
12.0	2215.0
11.0	2142.0
10.0	2049.0
9.0	1991.0
8.0	1933.0
7.0	1776.0
6.0	1634.0
5.0	1649.0
4.0	1468.0
3.0	1128.0
2.0	777.0
1.0	475.0
0.0	193.0
-1.0	84.0
-2.0	33.0
-3.0	11.0
-4.0	6.0
-5.0	6.0