File: XPS/Casa format/MX-HT 0p1 20Ap location X1 in image_MXHT0p120ApTi3s_Ti3s.txt
BE/eV	PE: 20.0 eV
74.0	569.0
73.9	558.0
73.8	594.0
73.7	567.0
73.6	574.0
73.5	568.0
73.4	535.0
73.3	584.0
73.2	558.0
73.1	538.0
73.0	544.0
72.9	561.0
72.8	570.0
72.7	526.0
72.6	545.0
72.5	552.0
72.4	576.0
72.3	571.0
72.2	556.0
72.1	544.0
72.0	548.0
71.9	534.0
71.8	519.0
71.7	546.0
71.6	542.0
71.5	512.0
71.4	546.0
71.3	520.0
71.2	555.0
71.1	528.0
71.0	537.0
70.9	547.0
70.8	533.0
70.7	545.0
70.6	545.0
70.5	535.0
70.4	561.0
70.3	540.0
70.2	580.0
70.1	548.0
70.0	530.0
69.9	519.0
69.8	529.0
69.7	529.0
69.6	578.0
69.5	555.0
69.4	516.0
69.3	515.0
69.2	525.0
69.1	502.0
69.0	514.0
68.9	503.0
68.8	500.0
68.7	509.0
68.6	475.0
68.5	514.0
68.4	507.0
68.3	519.0
68.2	531.0
68.1	531.0
68.0	522.0
67.9	521.0
67.8	529.0
67.7	527.0
67.6	504.0
67.5	508.0
67.4	499.0
67.3	521.0
67.2	515.0
67.1	485.0
67.0	513.0
66.9	530.0
66.8	547.0
66.7	523.0
66.6	494.0
66.5	533.0
66.4	537.0
66.3	527.0
66.2	525.0
66.1	544.0
66.0	554.0
65.9	520.0
65.8	537.0
65.7	532.0
65.6	542.0
65.5	555.0
65.4	529.0
65.3	544.0
65.2	537.0
65.1	539.0
65.0	542.0
64.9	534.0
64.8	569.0
64.7	567.0
64.6	561.0
64.5	577.0
64.4	569.0
64.3	565.0
64.2	579.0
64.1	587.0
64.0	598.0
63.9	597.0
63.8	622.0
63.7	615.0
63.6	590.0
63.5	582.0
63.4	613.0
63.3	606.0
63.2	651.0
63.1	672.0
63.0	670.0
62.9	634.0
62.8	646.0
62.7	694.0
62.6	696.0
62.5	701.0
62.4	723.0
62.3	706.0
62.2	747.0
62.1	732.0
62.0	770.0
61.9	769.0
61.8	736.0
61.7	768.0
61.6	788.0
61.5	774.0
61.4	801.0
61.3	751.0
61.2	749.0
61.1	793.0
61.0	793.0
60.9	744.0
60.8	790.0
60.7	794.0
60.6	793.0
60.5	823.0
60.4	835.0
60.3	838.0
60.2	833.0
60.1	837.0
60.0	858.0
59.9	854.0
59.8	924.0
59.7	905.0
59.6	851.0
59.5	862.0
59.4	865.0
59.3	879.0
59.2	897.0
59.1	857.0
59.0	914.0
58.9	884.0
58.8	858.0
58.7	869.0
58.6	869.0
58.5	838.0
58.4	823.0
58.3	832.0
58.2	796.0
58.1	788.0
58.0	720.0
57.9	685.0
57.8	700.0
57.7	681.0
57.6	649.0
57.5	684.0
57.4	648.0
57.3	654.0
57.2	629.0
57.1	624.0
57.0	612.0
56.9	582.0
56.8	572.0
56.7	556.0
56.6	535.0
56.5	547.0
56.4	545.0
56.3	554.0
56.2	576.0
56.1	553.0
56.0	533.0
55.9	543.0
55.8	541.0
55.7	506.0
55.6	543.0
55.5	547.0
55.4	535.0
55.3	498.0
55.2	528.0
55.1	515.0
55.0	496.0
54.9	515.0
54.8	516.0
54.7	523.0
54.6	524.0
54.5	514.0
54.4	512.0
54.3	510.0
54.2	542.0
54.1	501.0
54.0	496.0
53.9	514.0
53.8	497.0
53.7	514.0
53.6	531.0
53.5	501.0
53.4	515.0
53.3	516.0
53.2	489.0
53.1	530.0
53.0	480.0
52.9	486.0
52.8	516.0
52.7	487.0
52.6	496.0
52.5	496.0
52.4	527.0
52.3	477.0
52.2	485.0
52.1	515.0
52.0	531.0
51.9	532.0
51.8	492.0
51.7	497.0
51.6	515.0
51.5	480.0
51.4	526.0
51.3	514.0
51.2	526.0
51.1	524.0
51.0	525.0
50.9	534.0
50.8	529.0
50.7	485.0
50.6	452.0
50.5	501.0
50.4	499.0
50.3	555.0
50.2	514.0
50.1	516.0
50.0	487.0
49.9	522.0
49.8	537.0
49.7	524.0
49.6	514.0
49.5	486.0
49.4	515.0
49.3	525.0
49.2	505.0
49.1	521.0
49.0	511.0
48.9	500.0
48.8	475.0
48.7	522.0
48.6	525.0
48.5	514.0
48.4	500.0
48.3	515.0
48.2	518.0
48.1	555.0
48.0	518.0
47.9	519.0
47.8	509.0
47.7	513.0
47.6	498.0
47.5	541.0
47.4	482.0
47.3	494.0
47.2	522.0
47.1	497.0
47.0	497.0
46.9	512.0
46.8	526.0
46.7	495.0
46.6	512.0
46.5	473.0
46.4	493.0
46.3	500.0
46.2	480.0
46.1	480.0
46.0	502.0
45.9	516.0
45.8	508.0
45.7	507.0
45.6	492.0
45.5	507.0
45.4	478.0
45.3	468.0
45.2	465.0
45.1	475.0
45.0	463.0
44.9	462.0
44.8	453.0
44.7	479.0
44.6	462.0
44.5	480.0
44.4	432.0
44.3	442.0
44.2	488.0
44.1	485.0
44.0	472.0