File: XPS/Casa format/MX-HT 0p5 20Ap location H1 in image_MXHT0p520ApTi3s_Ti3s.txt
BE/eV	PE: 20.0 eV
74.0	940.0
73.9	915.0
73.8	937.0
73.7	955.0
73.6	911.0
73.5	951.0
73.4	930.0
73.3	902.0
73.2	921.0
73.1	969.0
73.0	962.0
72.9	931.0
72.8	928.0
72.7	907.0
72.6	946.0
72.5	896.0
72.4	912.0
72.3	923.0
72.2	966.0
72.1	935.0
72.0	923.0
71.9	851.0
71.8	875.0
71.7	916.0
71.6	926.0
71.5	911.0
71.4	892.0
71.3	939.0
71.2	906.0
71.1	911.0
71.0	927.0
70.9	838.0
70.8	857.0
70.7	901.0
70.6	886.0
70.5	885.0
70.4	894.0
70.3	874.0
70.2	833.0
70.1	898.0
70.0	885.0
69.9	914.0
69.8	890.0
69.7	857.0
69.6	866.0
69.5	845.0
69.4	863.0
69.3	832.0
69.2	865.0
69.1	906.0
69.0	909.0
68.9	909.0
68.8	841.0
68.7	898.0
68.6	882.0
68.5	873.0
68.4	870.0
68.3	859.0
68.2	879.0
68.1	878.0
68.0	869.0
67.9	872.0
67.8	860.0
67.7	828.0
67.6	870.0
67.5	888.0
67.4	839.0
67.3	843.0
67.2	820.0
67.1	898.0
67.0	909.0
66.9	884.0
66.8	928.0
66.7	919.0
66.6	873.0
66.5	880.0
66.4	870.0
66.3	927.0
66.2	900.0
66.1	953.0
66.0	908.0
65.9	902.0
65.8	933.0
65.7	957.0
65.6	934.0
65.5	927.0
65.4	911.0
65.3	893.0
65.2	930.0
65.1	938.0
65.0	941.0
64.9	971.0
64.8	951.0
64.7	974.0
64.6	942.0
64.5	983.0
64.4	999.0
64.3	1022.0
64.2	1025.0
64.1	1042.0
64.0	1046.0
63.9	1034.0
63.8	1032.0
63.7	1040.0
63.6	1076.0
63.5	1085.0
63.4	1076.0
63.3	1067.0
63.2	1084.0
63.1	1177.0
63.0	1186.0
62.9	1202.0
62.8	1156.0
62.7	1197.0
62.6	1171.0
62.5	1177.0
62.4	1219.0
62.3	1285.0
62.2	1311.0
62.1	1328.0
62.0	1310.0
61.9	1266.0
61.8	1320.0
61.7	1327.0
61.6	1343.0
61.5	1324.0
61.4	1340.0
61.3	1364.0
61.2	1400.0
61.1	1490.0
61.0	1439.0
60.9	1429.0
60.8	1456.0
60.7	1470.0
60.6	1525.0
60.5	1546.0
60.4	1520.0
60.3	1587.0
60.2	1621.0
60.1	1586.0
60.0	1623.0
59.9	1571.0
59.8	1619.0
59.7	1640.0
59.6	1650.0
59.5	1615.0
59.4	1652.0
59.3	1671.0
59.2	1617.0
59.1	1610.0
59.0	1639.0
58.9	1619.0
58.8	1557.0
58.7	1541.0
58.6	1535.0
58.5	1561.0
58.4	1439.0
58.3	1377.0
58.2	1323.0
58.1	1321.0
58.0	1288.0
57.9	1225.0
57.8	1191.0
57.7	1173.0
57.6	1147.0
57.5	1130.0
57.4	1128.0
57.3	1061.0
57.2	1055.0
57.1	1031.0
57.0	1006.0
56.9	1026.0
56.8	972.0
56.7	961.0
56.6	993.0
56.5	946.0
56.4	905.0
56.3	923.0
56.2	907.0
56.1	922.0
56.0	931.0
55.9	907.0
55.8	919.0
55.7	891.0
55.6	931.0
55.5	892.0
55.4	831.0
55.3	866.0
55.2	835.0
55.1	837.0
55.0	879.0
54.9	865.0
54.8	890.0
54.7	871.0
54.6	868.0
54.5	889.0
54.4	825.0
54.3	888.0
54.2	848.0
54.1	875.0
54.0	828.0
53.9	783.0
53.8	843.0
53.7	848.0
53.6	840.0
53.5	845.0
53.4	823.0
53.3	851.0
53.2	858.0
53.1	896.0
53.0	863.0
52.9	830.0
52.8	800.0
52.7	819.0
52.6	866.0
52.5	827.0
52.4	822.0
52.3	870.0
52.2	800.0
52.1	859.0
52.0	846.0
51.9	793.0
51.8	790.0
51.7	851.0
51.6	860.0
51.5	812.0
51.4	861.0
51.3	825.0
51.2	850.0
51.1	845.0
51.0	882.0
50.9	863.0
50.8	811.0
50.7	818.0
50.6	876.0
50.5	870.0
50.4	832.0
50.3	819.0
50.2	869.0
50.1	840.0
50.0	823.0
49.9	862.0
49.8	862.0
49.7	867.0
49.6	837.0
49.5	866.0
49.4	845.0
49.3	855.0
49.2	827.0
49.1	815.0
49.0	855.0
48.9	826.0
48.8	868.0
48.7	814.0
48.6	840.0
48.5	829.0
48.4	812.0
48.3	806.0
48.2	819.0
48.1	815.0
48.0	792.0
47.9	785.0
47.8	820.0
47.7	834.0
47.6	851.0
47.5	804.0
47.4	825.0
47.3	869.0
47.2	807.0
47.1	786.0
47.0	793.0
46.9	783.0
46.8	804.0
46.7	807.0
46.6	856.0
46.5	842.0
46.4	797.0
46.3	804.0
46.2	816.0
46.1	747.0
46.0	797.0
45.9	822.0
45.8	802.0
45.7	801.0
45.6	747.0
45.5	772.0
45.4	768.0
45.3	754.0
45.2	790.0
45.1	788.0
45.0	747.0
44.9	765.0
44.8	766.0
44.7	752.0
44.6	762.0
44.5	712.0
44.4	757.0
44.3	792.0
44.2	745.0
44.1	742.0
44.0	745.0