File: XPS/Casa format/MX-UT 0p5 20Ap location U1 in image-0.6287_MXUT0p520ApTi3s_Ti3s.txt
BE/eV	PE: 20.0 eV
74.0	454.0
73.9	475.0
73.8	413.0
73.7	418.0
73.6	411.0
73.5	481.0
73.4	469.0
73.3	453.0
73.2	439.0
73.1	456.0
73.0	430.0
72.9	427.0
72.8	439.0
72.7	465.0
72.6	475.0
72.5	460.0
72.4	419.0
72.3	444.0
72.2	450.0
72.1	465.0
72.0	464.0
71.9	471.0
71.8	445.0
71.7	441.0
71.6	447.0
71.5	466.0
71.4	468.0
71.3	414.0
71.2	419.0
71.1	417.0
71.0	462.0
70.9	414.0
70.8	412.0
70.7	419.0
70.6	483.0
70.5	426.0
70.4	432.0
70.3	435.0
70.2	422.0
70.1	437.0
70.0	428.0
69.9	416.0
69.8	404.0
69.7	372.0
69.6	398.0
69.5	415.0
69.4	445.0
69.3	417.0
69.2	415.0
69.1	410.0
69.0	414.0
68.9	428.0
68.8	445.0
68.7	454.0
68.6	442.0
68.5	422.0
68.4	439.0
68.3	406.0
68.2	406.0
68.1	407.0
68.0	445.0
67.9	427.0
67.8	393.0
67.7	411.0
67.6	432.0
67.5	410.0
67.4	457.0
67.3	407.0
67.2	437.0
67.1	435.0
67.0	424.0
66.9	421.0
66.8	419.0
66.7	424.0
66.6	424.0
66.5	444.0
66.4	451.0
66.3	423.0
66.2	426.0
66.1	434.0
66.0	423.0
65.9	427.0
65.8	438.0
65.7	408.0
65.6	421.0
65.5	436.0
65.4	437.0
65.3	446.0
65.2	468.0
65.1	421.0
65.0	410.0
64.9	429.0
64.8	422.0
64.7	455.0
64.6	433.0
64.5	445.0
64.4	445.0
64.3	467.0
64.2	453.0
64.1	438.0
64.0	439.0
63.9	454.0
63.8	437.0
63.7	439.0
63.6	476.0
63.5	464.0
63.4	471.0
63.3	491.0
63.2	493.0
63.1	470.0
63.0	475.0
62.9	478.0
62.8	485.0
62.7	513.0
62.6	528.0
62.5	538.0
62.4	578.0
62.3	570.0
62.2	511.0
62.1	537.0
62.0	570.0
61.9	575.0
61.8	571.0
61.7	566.0
61.6	561.0
61.5	589.0
61.4	585.0
61.3	602.0
61.2	592.0
61.1	559.0
61.0	604.0
60.9	624.0
60.8	648.0
60.7	629.0
60.6	615.0
60.5	646.0
60.4	685.0
60.3	677.0
60.2	680.0
60.1	671.0
60.0	689.0
59.9	700.0
59.8	692.0
59.7	741.0
59.6	740.0
59.5	713.0
59.4	722.0
59.3	718.0
59.2	752.0
59.1	753.0
59.0	753.0
58.9	695.0
58.8	713.0
58.7	688.0
58.6	663.0
58.5	664.0
58.4	622.0
58.3	641.0
58.2	624.0
58.1	624.0
58.0	600.0
57.9	588.0
57.8	567.0
57.7	535.0
57.6	533.0
57.5	508.0
57.4	491.0
57.3	449.0
57.2	475.0
57.1	498.0
57.0	493.0
56.9	449.0
56.8	454.0
56.7	432.0
56.6	435.0
56.5	467.0
56.4	446.0
56.3	426.0
56.2	459.0
56.1	436.0
56.0	473.0
55.9	432.0
55.8	426.0
55.7	440.0
55.6	420.0
55.5	444.0
55.4	442.0
55.3	429.0
55.2	454.0
55.1	449.0
55.0	443.0
54.9	447.0
54.8	444.0
54.7	426.0
54.6	442.0
54.5	431.0
54.4	420.0
54.3	410.0
54.2	401.0
54.1	418.0
54.0	432.0
53.9	405.0
53.8	429.0
53.7	396.0
53.6	389.0
53.5	378.0
53.4	407.0
53.3	426.0
53.2	395.0
53.1	417.0
53.0	427.0
52.9	412.0
52.8	420.0
52.7	393.0
52.6	395.0
52.5	417.0
52.4	427.0
52.3	406.0
52.2	408.0
52.1	391.0
52.0	414.0
51.9	418.0
51.8	400.0
51.7	385.0
51.6	406.0
51.5	397.0
51.4	389.0
51.3	378.0
51.2	441.0
51.1	400.0
51.0	396.0
50.9	409.0
50.8	425.0
50.7	411.0
50.6	399.0
50.5	378.0
50.4	415.0
50.3	411.0
50.2	412.0
50.1	398.0
50.0	415.0
49.9	420.0
49.8	410.0
49.7	410.0
49.6	408.0
49.5	415.0
49.4	407.0
49.3	425.0
49.2	410.0
49.1	404.0
49.0	411.0
48.9	405.0
48.8	400.0
48.7	403.0
48.6	380.0
48.5	411.0
48.4	419.0
48.3	430.0
48.2	408.0
48.1	425.0
48.0	416.0
47.9	403.0
47.8	418.0
47.7	410.0
47.6	434.0
47.5	381.0
47.4	405.0
47.3	409.0
47.2	404.0
47.1	391.0
47.0	420.0
46.9	404.0
46.8	395.0
46.7	382.0
46.6	408.0
46.5	383.0
46.4	390.0
46.3	386.0
46.2	357.0
46.1	349.0
46.0	396.0
45.9	362.0
45.8	401.0
45.7	412.0
45.6	430.0
45.5	424.0
45.4	381.0
45.3	398.0
45.2	399.0
45.1	392.0
45.0	383.0
44.9	399.0
44.8	413.0
44.7	392.0
44.6	366.0
44.5	380.0
44.4	366.0
44.3	385.0
44.2	367.0
44.1	373.0
44.0	376.0