File: XPS/Casa format/MX-UT 0p5 20Ap location U1 in image-0.6530_MXUT0p520ApCl2s_Cl2s.txt
BE/eV	PE: 20.0 eV
285.0	1730.0
284.9	1764.0
284.8	2033.0
284.7	2343.0
284.6	2758.0
284.5	3348.0
284.4	4161.0
284.3	5403.0
284.2	7367.0
284.1	9670.0
284.0	11833.0
283.9	12472.0
283.8	10949.0
283.7	7774.0
283.6	4878.0
283.5	2835.0
283.4	1653.0
283.3	1089.0
283.2	809.0
283.1	589.0
283.0	467.0
282.9	414.0
282.8	314.0
282.7	283.0
282.6	257.0
282.5	250.0
282.4	237.0
282.3	234.0
282.2	221.0
282.1	230.0
282.0	220.0
281.9	234.0
281.8	276.0
281.7	364.0
281.6	453.0
281.5	565.0
281.4	623.0
281.3	593.0
281.2	480.0
281.1	349.0
281.0	231.0
280.9	189.0
280.8	122.0
280.7	124.0
280.6	115.0
280.5	107.0
280.4	102.0
280.3	87.0
280.2	93.0
280.1	92.0
280.0	94.0
279.9	86.0
279.8	82.0
279.7	75.0
279.6	85.0
279.5	97.0
279.4	87.0
279.3	79.0
279.2	78.0
279.1	73.0
279.0	85.0
278.9	94.0
278.8	75.0
278.7	77.0
278.6	80.0
278.5	84.0
278.4	92.0
278.3	83.0
278.2	84.0
278.1	74.0
278.0	69.0
277.9	80.0
277.8	75.0
277.7	68.0
277.6	80.0
277.5	81.0
277.4	73.0
277.3	67.0
277.2	70.0
277.1	71.0
277.0	62.0
276.9	76.0
276.8	76.0
276.7	79.0
276.6	74.0
276.5	76.0
276.4	76.0
276.3	75.0
276.2	72.0
276.1	62.0
276.0	73.0
275.9	76.0
275.8	96.0
275.7	84.0
275.6	76.0
275.5	68.0
275.4	73.0
275.3	90.0
275.2	94.0
275.1	75.0
275.0	69.0
274.9	82.0
274.8	81.0
274.7	60.0
274.6	83.0
274.5	87.0
274.4	87.0
274.3	83.0
274.2	82.0
274.1	75.0
274.0	68.0
273.9	74.0
273.8	73.0
273.7	68.0
273.6	76.0
273.5	59.0
273.4	71.0
273.3	81.0
273.2	74.0
273.1	70.0
273.0	73.0
272.9	88.0
272.8	71.0
272.7	71.0
272.6	78.0
272.5	81.0
272.4	67.0
272.3	86.0
272.2	81.0
272.1	68.0
272.0	81.0
271.9	93.0
271.8	101.0
271.7	91.0
271.6	91.0
271.5	89.0
271.4	75.0
271.3	79.0
271.2	76.0
271.1	99.0
271.0	101.0
270.9	81.0
270.8	84.0
270.7	90.0
270.6	82.0
270.5	87.0
270.4	93.0
270.3	95.0
270.2	93.0
270.1	90.0
270.0	90.0
269.9	82.0
269.8	99.0
269.7	95.0
269.6	96.0
269.5	94.0
269.4	90.0
269.3	97.0
269.2	75.0
269.1	84.0
269.0	87.0
268.9	98.0
268.8	86.0
268.7	83.0
268.6	86.0
268.5	80.0
268.4	80.0
268.3	79.0
268.2	74.0
268.1	66.0
268.0	79.0
267.9	67.0
267.8	74.0
267.7	84.0
267.6	86.0
267.5	80.0
267.4	74.0
267.3	79.0
267.2	72.0
267.1	73.0
267.0	75.0
266.9	89.0
266.8	84.0
266.7	74.0
266.6	60.0
266.5	69.0
266.4	70.0
266.3	77.0
266.2	71.0
266.1	95.0
266.0	74.0
265.9	69.0
265.8	77.0
265.7	79.0
265.6	81.0
265.5	71.0
265.4	75.0
265.3	80.0
265.2	79.0
265.1	74.0
265.0	71.0
264.9	67.0
264.8	77.0
264.7	65.0
264.6	66.0
264.5	74.0
264.4	71.0
264.3	61.0
264.2	65.0
264.1	98.0
264.0	82.0
263.9	77.0
263.8	64.0
263.7	76.0
263.6	73.0
263.5	79.0
263.4	80.0
263.3	76.0
263.2	75.0
263.1	81.0
263.0	77.0
262.9	80.0
262.8	78.0
262.7	80.0
262.6	72.0
262.5	72.0
262.4	69.0
262.3	66.0
262.2	66.0
262.1	72.0
262.0	69.0
261.9	75.0
261.8	67.0
261.7	50.0
261.6	57.0
261.5	63.0
261.4	75.0
261.3	78.0
261.2	63.0
261.1	76.0
261.0	83.0
260.9	63.0
260.8	59.0
260.7	67.0
260.6	58.0
260.5	61.0
260.4	79.0
260.3	76.0
260.2	68.0
260.1	70.0
260.0	70.0
259.9	67.0
259.8	73.0
259.7	78.0
259.6	70.0
259.5	71.0
259.4	81.0
259.3	69.0
259.2	81.0
259.1	70.0
259.0	68.0
258.9	83.0
258.8	81.0
258.7	73.0
258.6	70.0
258.5	61.0
258.4	65.0
258.3	57.0
258.2	54.0
258.1	72.0
258.0	83.0
257.9	85.0
257.8	67.0
257.7	69.0
257.6	71.0
257.5	70.0
257.4	56.0
257.3	64.0
257.2	74.0
257.1	71.0
257.0	66.0
256.9	78.0
256.8	80.0
256.7	66.0
256.6	79.0
256.5	87.0
256.4	81.0
256.3	75.0
256.2	71.0
256.1	74.0
256.0	84.0
255.9	65.0
255.8	59.0
255.7	66.0
255.6	65.0
255.5	71.0
255.4	63.0
255.3	66.0
255.2	74.0
255.1	64.0
255.0	68.0