File: XPS/Casa format/MX-UT 0p5 20Ap location U1 in image-0.6530_MXUT0p520ApTi3p_Ti3p.txt
BE/eV	PE: 20.0 eV
49.0	405.0
48.9	391.0
48.8	407.0
48.7	385.0
48.6	410.0
48.5	424.0
48.4	423.0
48.3	425.0
48.2	382.0
48.1	391.0
48.0	414.0
47.9	395.0
47.8	410.0
47.7	378.0
47.6	372.0
47.5	430.0
47.4	427.0
47.3	417.0
47.2	407.0
47.1	397.0
47.0	392.0
46.9	376.0
46.8	410.0
46.7	435.0
46.6	397.0
46.5	392.0
46.4	407.0
46.3	389.0
46.2	391.0
46.1	390.0
46.0	389.0
45.9	408.0
45.8	389.0
45.7	412.0
45.6	375.0
45.5	376.0
45.4	371.0
45.3	381.0
45.2	395.0
45.1	377.0
45.0	376.0
44.9	379.0
44.8	389.0
44.7	380.0
44.6	388.0
44.5	383.0
44.4	379.0
44.3	374.0
44.2	386.0
44.1	400.0
44.0	345.0
43.9	356.0
43.8	367.0
43.7	369.0
43.6	369.0
43.5	390.0
43.4	380.0
43.3	353.0
43.2	345.0
43.1	364.0
43.0	375.0
42.9	335.0
42.8	385.0
42.7	375.0
42.6	381.0
42.5	363.0
42.4	346.0
42.3	371.0
42.2	387.0
42.1	367.0
42.0	333.0
41.9	368.0
41.8	376.0
41.7	367.0
41.6	382.0
41.5	367.0
41.4	381.0
41.3	387.0
41.2	375.0
41.1	384.0
41.0	392.0
40.9	371.0
40.8	380.0
40.7	403.0
40.6	366.0
40.5	362.0
40.4	390.0
40.3	385.0
40.2	381.0
40.1	406.0
40.0	351.0
39.9	388.0
39.8	395.0
39.7	409.0
39.6	398.0
39.5	432.0
39.4	406.0
39.3	386.0
39.2	413.0
39.1	433.0
39.0	408.0
38.9	412.0
38.8	438.0
38.7	454.0
38.6	431.0
38.5	418.0
38.4	449.0
38.3	450.0
38.2	481.0
38.1	458.0
38.0	452.0
37.9	472.0
37.8	473.0
37.7	483.0
37.6	467.0
37.5	487.0
37.4	501.0
37.3	547.0
37.2	513.0
37.1	557.0
37.0	535.0
36.9	577.0
36.8	592.0
36.7	593.0
36.6	572.0
36.5	582.0
36.4	565.0
36.3	614.0
36.2	643.0
36.1	661.0
36.0	676.0
35.9	700.0
35.8	716.0
35.7	762.0
35.6	785.0
35.5	787.0
35.4	848.0
35.3	849.0
35.2	852.0
35.1	893.0
35.0	909.0
34.9	879.0
34.8	927.0
34.7	951.0
34.6	988.0
34.5	993.0
34.4	907.0
34.3	936.0
34.2	977.0
34.1	953.0
34.0	965.0
33.9	908.0
33.8	915.0
33.7	908.0
33.6	871.0
33.5	873.0
33.4	769.0
33.3	751.0
33.2	687.0
33.1	620.0
33.0	577.0
32.9	527.0
32.8	484.0
32.7	410.0
32.6	367.0
32.5	333.0
32.4	310.0
32.3	290.0
32.2	282.0
32.1	261.0
32.0	276.0
31.9	246.0
31.8	252.0
31.7	243.0
31.6	241.0
31.5	226.0
31.4	224.0
31.3	224.0
31.2	227.0
31.1	222.0
31.0	226.0
30.9	219.0
30.8	218.0
30.7	212.0
30.6	217.0
30.5	219.0
30.4	239.0
30.3	231.0
30.2	240.0
30.1	239.0
30.0	246.0
29.9	250.0
29.8	259.0
29.7	238.0
29.6	252.0
29.5	258.0
29.4	248.0
29.3	239.0
29.2	256.0
29.1	250.0
29.0	234.0
28.9	242.0
28.8	240.0
28.7	233.0
28.6	227.0
28.5	226.0
28.4	195.0
28.3	214.0
28.2	228.0
28.1	222.0
28.0	198.0
27.9	172.0
27.8	194.0
27.7	181.0
27.6	171.0
27.5	162.0
27.4	169.0
27.3	180.0
27.2	171.0
27.1	154.0
27.0	194.0
26.9	179.0
26.8	172.0
26.7	183.0
26.6	175.0
26.5	167.0
26.4	179.0
26.3	173.0
26.2	176.0
26.1	165.0
26.0	175.0
25.9	167.0
25.8	172.0
25.7	156.0
25.6	177.0
25.5	177.0
25.4	166.0
25.3	179.0
25.2	170.0
25.1	185.0
25.0	169.0
24.9	174.0
24.8	188.0
24.7	185.0
24.6	173.0
24.5	188.0
24.4	180.0
24.3	174.0
24.2	176.0
24.1	174.0
24.0	175.0
23.9	180.0
23.8	181.0
23.7	183.0
23.6	179.0
23.5	199.0
23.4	204.0
23.3	209.0
23.2	198.0
23.1	187.0
23.0	203.0
22.9	200.0
22.8	197.0
22.7	187.0
22.6	207.0
22.5	212.0
22.4	231.0
22.3	233.0
22.2	232.0
22.1	259.0
22.0	222.0
21.9	239.0
21.8	254.0
21.7	253.0
21.6	262.0
21.5	260.0
21.4	247.0
21.3	264.0
21.2	275.0
21.1	260.0
21.0	274.0
20.9	293.0
20.8	294.0
20.7	284.0
20.6	278.0
20.5	310.0
20.4	294.0
20.3	286.0
20.2	291.0
20.1	264.0
20.0	280.0
19.9	284.0
19.8	276.0
19.7	278.0
19.6	282.0
19.5	291.0
19.4	257.0
19.3	280.0
19.2	286.0
19.1	278.0
19.0	288.0