File: XPS/Casa format/MX-UT 0p1 20Ap location M1 in image_MXUT0p120ApCl2s_Cl2s.txt
BE/eV	PE: 20.0 eV
285.0	2787.0
284.9	3356.0
284.8	4097.0
284.7	5614.0
284.6	7470.0
284.5	9712.0
284.4	11643.0
284.3	12354.0
284.2	10858.0
284.1	8020.0
284.0	4918.0
283.9	2820.0
283.8	1650.0
283.7	1092.0
283.6	812.0
283.5	573.0
283.4	464.0
283.3	360.0
283.2	283.0
283.1	262.0
283.0	221.0
282.9	220.0
282.8	204.0
282.7	183.0
282.6	196.0
282.5	178.0
282.4	204.0
282.3	207.0
282.2	222.0
282.1	302.0
282.0	373.0
281.9	403.0
281.8	424.0
281.7	427.0
281.6	334.0
281.5	248.0
281.4	152.0
281.3	136.0
281.2	116.0
281.1	98.0
281.0	89.0
280.9	70.0
280.8	83.0
280.7	77.0
280.6	73.0
280.5	82.0
280.4	76.0
280.3	71.0
280.2	67.0
280.1	73.0
280.0	74.0
279.9	71.0
279.8	71.0
279.7	53.0
279.6	61.0
279.5	67.0
279.4	73.0
279.3	80.0
279.2	66.0
279.1	60.0
279.0	67.0
278.9	71.0
278.8	70.0
278.7	71.0
278.6	63.0
278.5	57.0
278.4	62.0
278.3	67.0
278.2	58.0
278.1	74.0
278.0	78.0
277.9	76.0
277.8	52.0
277.7	54.0
277.6	57.0
277.5	52.0
277.4	63.0
277.3	65.0
277.2	60.0
277.1	57.0
277.0	61.0
276.9	64.0
276.8	65.0
276.7	60.0
276.6	72.0
276.5	65.0
276.4	64.0
276.3	68.0
276.2	52.0
276.1	59.0
276.0	59.0
275.9	49.0
275.8	71.0
275.7	58.0
275.6	56.0
275.5	63.0
275.4	69.0
275.3	65.0
275.2	63.0
275.1	67.0
275.0	59.0
274.9	53.0
274.8	58.0
274.7	54.0
274.6	57.0
274.5	58.0
274.4	63.0
274.3	62.0
274.2	52.0
274.1	67.0
274.0	63.0
273.9	59.0
273.8	63.0
273.7	66.0
273.6	63.0
273.5	81.0
273.4	66.0
273.3	50.0
273.2	62.0
273.1	53.0
273.0	59.0
272.9	68.0
272.8	54.0
272.7	66.0
272.6	62.0
272.5	54.0
272.4	69.0
272.3	54.0
272.2	55.0
272.1	64.0
272.0	68.0
271.9	63.0
271.8	70.0
271.7	73.0
271.6	61.0
271.5	66.0
271.4	68.0
271.3	62.0
271.2	69.0
271.1	72.0
271.0	69.0
270.9	66.0
270.8	82.0
270.7	74.0
270.6	76.0
270.5	65.0
270.4	66.0
270.3	84.0
270.2	67.0
270.1	78.0
270.0	73.0
269.9	75.0
269.8	71.0
269.7	71.0
269.6	84.0
269.5	77.0
269.4	74.0
269.3	66.0
269.2	67.0
269.1	65.0
269.0	66.0
268.9	73.0
268.8	67.0
268.7	70.0
268.6	59.0
268.5	64.0
268.4	61.0
268.3	79.0
268.2	76.0
268.1	58.0
268.0	62.0
267.9	64.0
267.8	62.0
267.7	53.0
267.6	64.0
267.5	61.0
267.4	56.0
267.3	65.0
267.2	75.0
267.1	62.0
267.0	59.0
266.9	51.0
266.8	62.0
266.7	58.0
266.6	54.0
266.5	68.0
266.4	58.0
266.3	73.0
266.2	65.0
266.1	65.0
266.0	54.0
265.9	63.0
265.8	62.0
265.7	53.0
265.6	50.0
265.5	65.0
265.4	63.0
265.3	55.0
265.2	62.0
265.1	60.0
265.0	60.0
264.9	57.0
264.8	62.0
264.7	68.0
264.6	65.0
264.5	63.0
264.4	68.0
264.3	65.0
264.2	51.0
264.1	61.0
264.0	62.0
263.9	56.0
263.8	60.0
263.7	52.0
263.6	57.0
263.5	77.0
263.4	64.0
263.3	55.0
263.2	50.0
263.1	58.0
263.0	65.0
262.9	61.0
262.8	57.0
262.7	61.0
262.6	57.0
262.5	61.0
262.4	62.0
262.3	59.0
262.2	66.0
262.1	54.0
262.0	59.0
261.9	62.0
261.8	60.0
261.7	66.0
261.6	66.0
261.5	58.0
261.4	49.0
261.3	53.0
261.2	52.0
261.1	62.0
261.0	59.0
260.9	61.0
260.8	63.0
260.7	55.0
260.6	61.0
260.5	64.0
260.4	65.0
260.3	59.0
260.2	68.0
260.1	60.0
260.0	57.0
259.9	63.0
259.8	59.0
259.7	61.0
259.6	57.0
259.5	58.0
259.4	55.0
259.3	60.0
259.2	61.0
259.1	58.0
259.0	56.0
258.9	51.0
258.8	44.0
258.7	58.0
258.6	53.0
258.5	55.0
258.4	59.0
258.3	57.0
258.2	61.0
258.1	56.0
258.0	62.0
257.9	56.0
257.8	60.0
257.7	67.0
257.6	64.0
257.5	63.0
257.4	54.0
257.3	59.0
257.2	62.0
257.1	47.0
257.0	50.0
256.9	54.0
256.8	68.0
256.7	58.0
256.6	52.0
256.5	45.0
256.4	57.0
256.3	67.0
256.2	64.0
256.1	47.0
256.0	64.0
255.9	55.0
255.8	53.0
255.7	55.0
255.6	62.0
255.5	63.0
255.4	50.0
255.3	65.0
255.2	64.0
255.1	65.0
255.0	58.0