File: XPS/Casa format/MX-UT 0p1 20Ap location M1 in image_MXUT0p120Apwide_wide.txt
BE/eV	PE: 160.0 eV
1200.0	36440.0
1199.0	36222.0
1198.0	36472.0
1197.0	36416.0
1196.0	36387.0
1195.0	36525.0
1194.0	36530.0
1193.0	36438.0
1192.0	36789.0
1191.0	36835.0
1190.0	36831.0
1189.0	37040.0
1188.0	36950.0
1187.0	36965.0
1186.0	36945.0
1185.0	37386.0
1184.0	37330.0
1183.0	37354.0
1182.0	37610.0
1181.0	37671.0
1180.0	37594.0
1179.0	37680.0
1178.0	37907.0
1177.0	38191.0
1176.0	38028.0
1175.0	38452.0
1174.0	38472.0
1173.0	38313.0
1172.0	38308.0
1171.0	38618.0
1170.0	38656.0
1169.0	38528.0
1168.0	38540.0
1167.0	38564.0
1166.0	38570.0
1165.0	38748.0
1164.0	38794.0
1163.0	38765.0
1162.0	39039.0
1161.0	39183.0
1160.0	39262.0
1159.0	39348.0
1158.0	39432.0
1157.0	39926.0
1156.0	39869.0
1155.0	39669.0
1154.0	39707.0
1153.0	39990.0
1152.0	39758.0
1151.0	39616.0
1150.0	40228.0
1149.0	40082.0
1148.0	39770.0
1147.0	40052.0
1146.0	40209.0
1145.0	40264.0
1144.0	40101.0
1143.0	40207.0
1142.0	40191.0
1141.0	40092.0
1140.0	40409.0
1139.0	40162.0
1138.0	40614.0
1137.0	40890.0
1136.0	40832.0
1135.0	40936.0
1134.0	41789.0
1133.0	41904.0
1132.0	42036.0
1131.0	41880.0
1130.0	41656.0
1129.0	41686.0
1128.0	41658.0
1127.0	41836.0
1126.0	41972.0
1125.0	42127.0
1124.0	42347.0
1123.0	42250.0
1122.0	42224.0
1121.0	41726.0
1120.0	41622.0
1119.0	41407.0
1118.0	41441.0
1117.0	41362.0
1116.0	41393.0
1115.0	41422.0
1114.0	41564.0
1113.0	41733.0
1112.0	42104.0
1111.0	42101.0
1110.0	42194.0
1109.0	42983.0
1108.0	43212.0
1107.0	43911.0
1106.0	44591.0
1105.0	45270.0
1104.0	45666.0
1103.0	45506.0
1102.0	44839.0
1101.0	43977.0
1100.0	44110.0
1099.0	43745.0
1098.0	42645.0
1097.0	40658.0
1096.0	39318.0
1095.0	38046.0
1094.0	37591.0
1093.0	36945.0
1092.0	36821.0
1091.0	36343.0
1090.0	36047.0
1089.0	35737.0
1088.0	35561.0
1087.0	35702.0
1086.0	35655.0
1085.0	35634.0
1084.0	35438.0
1083.0	35402.0
1082.0	35627.0
1081.0	35567.0
1080.0	35609.0
1079.0	35342.0
1078.0	35385.0
1077.0	35883.0
1076.0	36096.0
1075.0	36187.0
1074.0	36240.0
1073.0	36830.0
1072.0	37717.0
1071.0	38457.0
1070.0	38968.0
1069.0	39071.0
1068.0	38515.0
1067.0	38198.0
1066.0	38047.0
1065.0	37020.0
1064.0	35741.0
1063.0	34908.0
1062.0	34681.0
1061.0	34369.0
1060.0	34448.0
1059.0	34272.0
1058.0	34114.0
1057.0	34174.0
1056.0	33861.0
1055.0	34124.0
1054.0	34492.0
1053.0	34222.0
1052.0	34353.0
1051.0	33918.0
1050.0	34004.0
1049.0	34178.0
1048.0	34574.0
1047.0	34355.0
1046.0	34409.0
1045.0	34422.0
1044.0	34280.0
1043.0	34494.0
1042.0	34663.0
1041.0	34664.0
1040.0	34691.0
1039.0	34856.0
1038.0	34895.0
1037.0	35460.0
1036.0	35325.0
1035.0	35562.0
1034.0	35272.0
1033.0	35094.0
1032.0	35252.0
1031.0	34731.0
1030.0	35083.0
1029.0	35003.0
1028.0	34911.0
1027.0	35253.0
1026.0	35408.0
1025.0	35302.0
1024.0	35027.0
1023.0	35361.0
1022.0	35395.0
1021.0	35568.0
1020.0	35534.0
1019.0	35732.0
1018.0	35743.0
1017.0	35713.0
1016.0	35694.0
1015.0	35867.0
1014.0	36055.0
1013.0	35547.0
1012.0	35831.0
1011.0	36030.0
1010.0	36006.0
1009.0	35953.0
1008.0	35955.0
1007.0	36032.0
1006.0	36086.0
1005.0	36343.0
1004.0	36260.0
1003.0	36782.0
1002.0	36844.0
1001.0	36916.0
1000.0	36917.0
999.0	36935.0
998.0	37231.0
997.0	37035.0
996.0	37043.0
995.0	37154.0
994.0	37351.0
993.0	37508.0
992.0	37256.0
991.0	36947.0
990.0	37137.0
989.0	36742.0
988.0	36989.0
987.0	36838.0
986.0	36940.0
985.0	37206.0
984.0	36912.0
983.0	37175.0
982.0	37239.0
981.0	37273.0
980.0	37356.0
979.0	37888.0
978.0	38036.0
977.0	38926.0
976.0	39458.0
975.0	39428.0
974.0	39804.0
973.0	40516.0
972.0	40631.0
971.0	39717.0
970.0	38325.0
969.0	37385.0
968.0	36886.0
967.0	36657.0
966.0	36558.0
965.0	36011.0
964.0	35679.0
963.0	35829.0
962.0	35653.0
961.0	35672.0
960.0	35499.0
959.0	35550.0
958.0	35632.0
957.0	35999.0
956.0	35577.0
955.0	35606.0
954.0	35982.0
953.0	35978.0
952.0	35869.0
951.0	35812.0
950.0	36076.0
949.0	35943.0
948.0	35819.0
947.0	35798.0
946.0	35958.0
945.0	35711.0
944.0	36109.0
943.0	36052.0
942.0	36025.0
941.0	36124.0
940.0	36080.0
939.0	36164.0
938.0	36134.0
937.0	36395.0
936.0	36409.0
935.0	36439.0
934.0	36537.0
933.0	36888.0
932.0	36915.0
931.0	36703.0
930.0	36387.0
929.0	36487.0
928.0	36554.0
927.0	36545.0
926.0	36847.0
925.0	36809.0
924.0	37152.0
923.0	36936.0
922.0	37075.0
921.0	36848.0
920.0	36697.0
919.0	36794.0
918.0	37170.0
917.0	37308.0
916.0	37523.0
915.0	37267.0
914.0	37176.0
913.0	37383.0
912.0	37360.0
911.0	37227.0
910.0	37446.0
909.0	37393.0
908.0	37711.0
907.0	37642.0
906.0	37617.0
905.0	37442.0
904.0	37516.0
903.0	37840.0
902.0	37595.0
901.0	37852.0
900.0	37869.0
899.0	37686.0
898.0	38086.0
897.0	37956.0
896.0	38071.0
895.0	38116.0
894.0	38000.0
893.0	38126.0
892.0	38239.0
891.0	38243.0
890.0	38071.0
889.0	38334.0
888.0	38146.0
887.0	38083.0
886.0	38140.0
885.0	38476.0
884.0	38614.0
883.0	38642.0
882.0	38426.0
881.0	38644.0
880.0	39230.0
879.0	39002.0
878.0	39100.0
877.0	39008.0
876.0	38852.0
875.0	38963.0
874.0	39533.0
873.0	39513.0
872.0	39439.0
871.0	39447.0
870.0	39019.0
869.0	38822.0
868.0	38743.0
867.0	39000.0
866.0	38971.0
865.0	39166.0
864.0	39491.0
863.0	39524.0
862.0	39350.0
861.0	39331.0
860.0	39740.0
859.0	39869.0
858.0	39828.0
857.0	40096.0
856.0	40552.0
855.0	40476.0
854.0	40478.0
853.0	40474.0
852.0	39964.0
851.0	39875.0
850.0	39642.0
849.0	39641.0
848.0	39540.0
847.0	39580.0
846.0	39837.0
845.0	40063.0
844.0	39577.0
843.0	39136.0
842.0	39276.0
841.0	39663.0
840.0	39386.0
839.0	39322.0
838.0	39861.0
837.0	39747.0
836.0	40017.0
835.0	40270.0
834.0	40596.0
833.0	40828.0
832.0	40879.0
831.0	41257.0
830.0	41848.0
829.0	42214.0
828.0	43774.0
827.0	43938.0
826.0	41640.0
825.0	39911.0
824.0	39153.0
823.0	39187.0
822.0	39180.0
821.0	39406.0
820.0	39295.0
819.0	39158.0
818.0	39251.0
817.0	39467.0
816.0	39326.0
815.0	39635.0
814.0	39510.0
813.0	39728.0
812.0	39576.0
811.0	39359.0
810.0	39572.0
809.0	39848.0
808.0	39891.0
807.0	39952.0
806.0	39594.0
805.0	39611.0
804.0	39706.0
803.0	40013.0
802.0	40046.0
801.0	39820.0
800.0	39878.0
799.0	39596.0
798.0	39861.0
797.0	39899.0
796.0	39778.0
795.0	40155.0
794.0	40209.0
793.0	40125.0
792.0	40316.0
791.0	40089.0
790.0	40149.0
789.0	40465.0
788.0	40275.0
787.0	40467.0
786.0	40189.0
785.0	39942.0
784.0	40441.0
783.0	40435.0
782.0	40614.0
781.0	40589.0
780.0	40457.0
779.0	40624.0
778.0	40662.0
777.0	40545.0
776.0	40754.0
775.0	40854.0
774.0	40831.0
773.0	40747.0
772.0	41184.0
771.0	40670.0
770.0	40676.0
769.0	40969.0
768.0	41069.0
767.0	41120.0
766.0	41165.0
765.0	40939.0
764.0	41304.0
763.0	40806.0
762.0	41342.0
761.0	41274.0
760.0	41266.0
759.0	41315.0
758.0	41494.0
757.0	41190.0
756.0	41067.0
755.0	41292.0
754.0	41810.0
753.0	41700.0
752.0	41487.0
751.0	41444.0
750.0	41712.0
749.0	41754.0
748.0	41749.0
747.0	41883.0
746.0	41935.0
745.0	41826.0
744.0	41874.0
743.0	41862.0
742.0	42123.0
741.0	42160.0
740.0	41795.0
739.0	41886.0
738.0	42126.0
737.0	42445.0
736.0	42421.0
735.0	42217.0
734.0	42307.0
733.0	42465.0
732.0	42506.0
731.0	42508.0
730.0	42552.0
729.0	42438.0
728.0	42721.0
727.0	42629.0
726.0	42534.0
725.0	42547.0
724.0	42383.0
723.0	42783.0
722.0	42569.0
721.0	42455.0
720.0	42804.0
719.0	42501.0
718.0	42864.0
717.0	43169.0
716.0	42891.0
715.0	42824.0
714.0	42945.0
713.0	43536.0
712.0	43471.0
711.0	43372.0
710.0	43517.0
709.0	43555.0
708.0	43500.0
707.0	43575.0
706.0	43656.0
705.0	43163.0
704.0	43264.0
703.0	43360.0
702.0	42894.0
701.0	43357.0
700.0	43119.0
699.0	43471.0
698.0	43350.0
697.0	43438.0
696.0	42738.0
695.0	43054.0
694.0	43140.0
693.0	42844.0
692.0	43050.0
691.0	43325.0
690.0	43590.0
689.0	43531.0
688.0	43990.0
687.0	44903.0
686.0	46726.0
685.0	51762.0
684.0	51334.0
683.0	45993.0
682.0	43342.0
681.0	43084.0
680.0	42906.0
679.0	42911.0
678.0	42870.0
677.0	43090.0
676.0	42734.0
675.0	42799.0
674.0	43037.0
673.0	42917.0
672.0	42849.0
671.0	42894.0
670.0	43565.0
669.0	43276.0
668.0	43603.0
667.0	43406.0
666.0	43553.0
665.0	43542.0
664.0	43417.0
663.0	43531.0
662.0	43816.0
661.0	43532.0
660.0	43597.0
659.0	43726.0
658.0	43593.0
657.0	43538.0
656.0	43591.0
655.0	43504.0
654.0	43400.0
653.0	43903.0
652.0	43999.0
651.0	44168.0
650.0	44422.0
649.0	44321.0
648.0	44359.0
647.0	44548.0
646.0	44601.0
645.0	44324.0
644.0	44393.0
643.0	44307.0
642.0	44567.0
641.0	44720.0
640.0	44508.0
639.0	44556.0
638.0	44758.0
637.0	44931.0
636.0	44499.0
635.0	44600.0
634.0	44917.0
633.0	44494.0
632.0	44652.0
631.0	44873.0
630.0	45000.0
629.0	45051.0
628.0	44824.0
627.0	45122.0
626.0	45187.0
625.0	44668.0
624.0	45278.0
623.0	45275.0
622.0	45127.0
621.0	44996.0
620.0	45321.0
619.0	45239.0
618.0	45140.0
617.0	45389.0
616.0	45395.0
615.0	45697.0
614.0	45688.0
613.0	45516.0
612.0	45568.0
611.0	46068.0
610.0	45993.0
609.0	45912.0
608.0	45859.0
607.0	45934.0
606.0	46074.0
605.0	46268.0
604.0	46161.0
603.0	46197.0
602.0	46297.0
601.0	46159.0
600.0	46184.0
599.0	46178.0
598.0	45807.0
597.0	46071.0
596.0	46251.0
595.0	46154.0
594.0	46612.0
593.0	46819.0
592.0	46793.0
591.0	46939.0
590.0	47508.0
589.0	47537.0
588.0	47113.0
587.0	47167.0
586.0	47635.0
585.0	47941.0
584.0	47385.0
583.0	47843.0
582.0	47697.0
581.0	47553.0
580.0	47530.0
579.0	48194.0
578.0	48195.0
577.0	48051.0
576.0	48128.0
575.0	47967.0
574.0	48017.0
573.0	48051.0
572.0	47727.0
571.0	47577.0
570.0	47540.0
569.0	48066.0
568.0	47833.0
567.0	48407.0
566.0	48745.0
565.0	49294.0
564.0	50400.0
563.0	51422.0
562.0	51723.0
561.0	51324.0
560.0	50096.0
559.0	48362.0
558.0	47509.0
557.0	46739.0
556.0	46112.0
555.0	45693.0
554.0	45623.0
553.0	45576.0
552.0	45422.0
551.0	45372.0
550.0	45256.0
549.0	45059.0
548.0	44772.0
547.0	45090.0
546.0	45161.0
545.0	44994.0
544.0	45119.0
543.0	44733.0
542.0	44716.0
541.0	44414.0
540.0	44409.0
539.0	44570.0
538.0	44301.0
537.0	44177.0
536.0	44810.0
535.0	45434.0
534.0	46701.0
533.0	49408.0
532.0	52605.0
531.0	53067.0
530.0	52779.0
529.0	51777.0
528.0	47348.0
527.0	44189.0
526.0	43652.0
525.0	43645.0
524.0	43791.0
523.0	43544.0
522.0	43463.0
521.0	43534.0
520.0	43868.0
519.0	43618.0
518.0	43559.0
517.0	44001.0
516.0	43732.0
515.0	43820.0
514.0	44064.0
513.0	43839.0
512.0	44215.0
511.0	44349.0
510.0	44404.0
509.0	44400.0
508.0	44473.0
507.0	44637.0
506.0	44841.0
505.0	45026.0
504.0	44997.0
503.0	44630.0
502.0	44578.0
501.0	44623.0
500.0	44626.0
499.0	44578.0
498.0	44396.0
497.0	44502.0
496.0	44161.0
495.0	44377.0
494.0	44651.0
493.0	44784.0
492.0	44831.0
491.0	44596.0
490.0	45044.0
489.0	45244.0
488.0	45740.0
487.0	45841.0
486.0	45922.0
485.0	46142.0
484.0	46300.0
483.0	46736.0
482.0	46589.0
481.0	46725.0
480.0	47190.0
479.0	47096.0
478.0	47412.0
477.0	47404.0
476.0	47434.0
475.0	47084.0
474.0	46898.0
473.0	46688.0
472.0	46858.0
471.0	46697.0
470.0	46151.0
469.0	46068.0
468.0	45861.0
467.0	45632.0
466.0	45871.0
465.0	46441.0
464.0	47284.0
463.0	49388.0
462.0	52586.0
461.0	54286.0
460.0	51989.0
459.0	49407.0
458.0	49689.0
457.0	53921.0
456.0	60221.0
455.0	62636.0
454.0	52007.0
453.0	39913.0
452.0	35667.0
451.0	34898.0
450.0	34718.0
449.0	34660.0
448.0	34778.0
447.0	34409.0
446.0	34533.0
445.0	34586.0
444.0	34374.0
443.0	34395.0
442.0	34286.0
441.0	34572.0
440.0	34480.0
439.0	34637.0
438.0	34494.0
437.0	34656.0
436.0	34640.0
435.0	34674.0
434.0	34708.0
433.0	34850.0
432.0	34741.0
431.0	34408.0
430.0	34477.0
429.0	34704.0
428.0	34782.0
427.0	34489.0
426.0	34597.0
425.0	34944.0
424.0	34939.0
423.0	34840.0
422.0	35199.0
421.0	35177.0
420.0	35262.0
419.0	34924.0
418.0	34869.0
417.0	34952.0
416.0	35018.0
415.0	35079.0
414.0	35164.0
413.0	35014.0
412.0	35032.0
411.0	34959.0
410.0	35073.0
409.0	35437.0
408.0	35365.0
407.0	35364.0
406.0	35401.0
405.0	35058.0
404.0	35351.0
403.0	35544.0
402.0	35564.0
401.0	35904.0
400.0	36004.0
399.0	35920.0
398.0	35856.0
397.0	35649.0
396.0	35687.0
395.0	35807.0
394.0	35481.0
393.0	35464.0
392.0	35488.0
391.0	35277.0
390.0	35474.0
389.0	35586.0
388.0	35506.0
387.0	35633.0
386.0	35992.0
385.0	35610.0
384.0	35604.0
383.0	35649.0
382.0	36031.0
381.0	35977.0
380.0	35767.0
379.0	36123.0
378.0	36203.0
377.0	36197.0
376.0	36140.0
375.0	36384.0
374.0	36317.0
373.0	36099.0
372.0	36254.0
371.0	36394.0
370.0	36492.0
369.0	36259.0
368.0	36334.0
367.0	36485.0
366.0	36284.0
365.0	36372.0
364.0	36158.0
363.0	35952.0
362.0	36305.0
361.0	36298.0
360.0	36393.0
359.0	36360.0
358.0	36291.0
357.0	36592.0
356.0	36770.0
355.0	36767.0
354.0	36648.0
353.0	37124.0
352.0	37218.0
351.0	37296.0
350.0	37578.0
349.0	37452.0
348.0	37404.0
347.0	37461.0
346.0	37469.0
345.0	37347.0
344.0	37688.0
343.0	37980.0
342.0	37878.0
341.0	37602.0
340.0	37228.0
339.0	37300.0
338.0	37213.0
337.0	36955.0
336.0	36407.0
335.0	36459.0
334.0	36059.0
333.0	35761.0
332.0	35744.0
331.0	35513.0
330.0	35440.0
329.0	35389.0
328.0	35571.0
327.0	35846.0
326.0	36293.0
325.0	36765.0
324.0	37345.0
323.0	37583.0
322.0	38275.0
321.0	38626.0
320.0	39616.0
319.0	39940.0
318.0	40342.0
317.0	40701.0
316.0	41334.0
315.0	41396.0
314.0	41569.0
313.0	41504.0
312.0	41217.0
311.0	40904.0
310.0	39838.0
309.0	38767.0
308.0	37085.0
307.0	35085.0
306.0	33533.0
305.0	31815.0
304.0	30293.0
303.0	28254.0
302.0	26411.0
301.0	24730.0
300.0	23372.0
299.0	22384.0
298.0	21579.0
297.0	21284.0
296.0	21436.0
295.0	22254.0
294.0	23539.0
293.0	25612.0
292.0	28170.0
291.0	31295.0
290.0	33632.0
289.0	34625.0
288.0	36700.0
287.0	42343.0
286.0	59625.0
285.0	112525.0
284.0	190616.0
283.0	133615.0
282.0	38531.0
281.0	13452.0
280.0	7789.0
279.0	4899.0
278.0	3848.0
277.0	3462.0
276.0	3308.0
275.0	3242.0
274.0	3170.0
273.0	3103.0
272.0	3204.0
271.0	3299.0
270.0	3539.0
269.0	3447.0
268.0	3240.0
267.0	3012.0
266.0	2977.0
265.0	2842.0
264.0	2871.0
263.0	2906.0
262.0	2842.0
261.0	2906.0
260.0	2834.0
259.0	2851.0
258.0	2861.0
257.0	2880.0
256.0	2871.0
255.0	2849.0
254.0	2909.0
253.0	2838.0
252.0	2867.0
251.0	2800.0
250.0	2846.0
249.0	2932.0
248.0	2837.0
247.0	2925.0
246.0	2917.0
245.0	2846.0
244.0	2904.0
243.0	2988.0
242.0	2950.0
241.0	2907.0
240.0	2910.0
239.0	2931.0
238.0	2913.0
237.0	2908.0
236.0	2911.0
235.0	2868.0
234.0	2976.0
233.0	3018.0
232.0	3122.0
231.0	2993.0
230.0	2906.0
229.0	2948.0
228.0	2953.0
227.0	2973.0
226.0	3012.0
225.0	2981.0
224.0	3027.0
223.0	3004.0
222.0	2996.0
221.0	2934.0
220.0	2996.0
219.0	3055.0
218.0	2987.0
217.0	2938.0
216.0	2980.0
215.0	2975.0
214.0	2968.0
213.0	2924.0
212.0	2911.0
211.0	2972.0
210.0	2900.0
209.0	2848.0
208.0	2911.0
207.0	2948.0
206.0	2970.0
205.0	2906.0
204.0	3021.0
203.0	3045.0
202.0	3167.0
201.0	3438.0
200.0	3704.0
199.0	4000.0
198.0	3749.0
197.0	3201.0
196.0	2925.0
195.0	2883.0
194.0	2924.0
193.0	2947.0
192.0	2850.0
191.0	2869.0
190.0	2976.0
189.0	2892.0
188.0	2882.0
187.0	2942.0
186.0	2867.0
185.0	2854.0
184.0	2829.0
183.0	2875.0
182.0	2955.0
181.0	2913.0
180.0	2932.0
179.0	2899.0
178.0	2927.0
177.0	3087.0
176.0	3047.0
175.0	2937.0
174.0	2917.0
173.0	3006.0
172.0	2952.0
171.0	2900.0
170.0	3005.0
169.0	3019.0
168.0	3105.0
167.0	3015.0
166.0	3014.0
165.0	3053.0
164.0	3030.0
163.0	3063.0
162.0	3007.0
161.0	3058.0
160.0	3083.0
159.0	3082.0
158.0	2896.0
157.0	2971.0
156.0	2988.0
155.0	2996.0
154.0	2990.0
153.0	3117.0
152.0	3082.0
151.0	3138.0
150.0	3138.0
149.0	3071.0
148.0	3033.0
147.0	3121.0
146.0	3040.0
145.0	3087.0
144.0	3060.0
143.0	2982.0
142.0	3138.0
141.0	3101.0
140.0	3098.0
139.0	3083.0
138.0	3135.0
137.0	3206.0
136.0	3191.0
135.0	3149.0
134.0	3193.0
133.0	3173.0
132.0	3210.0
131.0	3181.0
130.0	3179.0
129.0	3181.0
128.0	3128.0
127.0	3247.0
126.0	3242.0
125.0	3226.0
124.0	3251.0
123.0	3240.0
122.0	3265.0
121.0	3247.0
120.0	3231.0
119.0	3279.0
118.0	3225.0
117.0	3240.0
116.0	3268.0
115.0	3323.0
114.0	3312.0
113.0	3306.0
112.0	3356.0
111.0	3379.0
110.0	3295.0
109.0	3275.0
108.0	3312.0
107.0	3398.0
106.0	3325.0
105.0	3380.0
104.0	3411.0
103.0	3424.0
102.0	3465.0
101.0	3516.0
100.0	3434.0
99.0	3379.0
98.0	3411.0
97.0	3366.0
96.0	3492.0
95.0	3392.0
94.0	3363.0
93.0	3442.0
92.0	3463.0
91.0	3455.0
90.0	3535.0
89.0	3557.0
88.0	3626.0
87.0	3605.0
86.0	3631.0
85.0	3632.0
84.0	3740.0
83.0	3689.0
82.0	3623.0
81.0	3696.0
80.0	3768.0
79.0	3793.0
78.0	3699.0
77.0	3706.0
76.0	3651.0
75.0	3692.0
74.0	3543.0
73.0	3558.0
72.0	3516.0
71.0	3543.0
70.0	3462.0
69.0	3471.0
68.0	3503.0
67.0	3516.0
66.0	3467.0
65.0	3509.0
64.0	3571.0
63.0	3908.0
62.0	4173.0
61.0	4524.0
60.0	5002.0
59.0	4979.0
58.0	4586.0
57.0	4060.0
56.0	3651.0
55.0	3384.0
54.0	3279.0
53.0	3210.0
52.0	3243.0
51.0	3293.0
50.0	3277.0
49.0	3286.0
48.0	3363.0
47.0	3256.0
46.0	3329.0
45.0	3296.0
44.0	3094.0
43.0	3100.0
42.0	3156.0
41.0	3219.0
40.0	3272.0
39.0	3389.0
38.0	3694.0
37.0	4179.0
36.0	4944.0
35.0	5910.0
34.0	6110.0
33.0	4853.0
32.0	3143.0
31.0	2210.0
30.0	2006.0
29.0	1931.0
28.0	1868.0
27.0	1709.0
26.0	1649.0
25.0	1634.0
24.0	1746.0
23.0	1922.0
22.0	2178.0
21.0	2395.0
20.0	2554.0
19.0	2602.0
18.0	2592.0
17.0	2557.0
16.0	2431.0
15.0	2251.0
14.0	2074.0
13.0	2052.0
12.0	1933.0
11.0	1749.0
10.0	1554.0
9.0	1417.0
8.0	1370.0
7.0	1197.0
6.0	1064.0
5.0	1008.0
4.0	869.0
3.0	707.0
2.0	495.0
1.0	263.0
0.0	119.0
-1.0	60.0
-2.0	19.0
-3.0	7.0
-4.0	6.0
-5.0	4.0