File: XPS/Casa format/MX-UT 0p1 20Ap location M1 in image_MXUT0p120ApTi3s_Ti3s.txt
BE/eV	PE: 20.0 eV
74.0	404.0
73.9	396.0
73.8	378.0
73.7	381.0
73.6	400.0
73.5	416.0
73.4	383.0
73.3	389.0
73.2	403.0
73.1	372.0
73.0	382.0
72.9	397.0
72.8	353.0
72.7	377.0
72.6	369.0
72.5	389.0
72.4	381.0
72.3	368.0
72.2	345.0
72.1	363.0
72.0	401.0
71.9	386.0
71.8	377.0
71.7	403.0
71.6	414.0
71.5	387.0
71.4	389.0
71.3	385.0
71.2	363.0
71.1	363.0
71.0	347.0
70.9	381.0
70.8	368.0
70.7	360.0
70.6	348.0
70.5	346.0
70.4	354.0
70.3	396.0
70.2	360.0
70.1	362.0
70.0	367.0
69.9	375.0
69.8	368.0
69.7	371.0
69.6	346.0
69.5	350.0
69.4	358.0
69.3	372.0
69.2	365.0
69.1	343.0
69.0	359.0
68.9	367.0
68.8	345.0
68.7	357.0
68.6	408.0
68.5	359.0
68.4	389.0
68.3	391.0
68.2	353.0
68.1	352.0
68.0	372.0
67.9	372.0
67.8	367.0
67.7	393.0
67.6	374.0
67.5	381.0
67.4	349.0
67.3	393.0
67.2	372.0
67.1	379.0
67.0	368.0
66.9	373.0
66.8	360.0
66.7	340.0
66.6	390.0
66.5	392.0
66.4	383.0
66.3	363.0
66.2	381.0
66.1	378.0
66.0	373.0
65.9	351.0
65.8	366.0
65.7	384.0
65.6	384.0
65.5	388.0
65.4	367.0
65.3	384.0
65.2	362.0
65.1	380.0
65.0	343.0
64.9	361.0
64.8	369.0
64.7	386.0
64.6	381.0
64.5	387.0
64.4	361.0
64.3	366.0
64.2	397.0
64.1	397.0
64.0	407.0
63.9	397.0
63.8	397.0
63.7	408.0
63.6	418.0
63.5	412.0
63.4	399.0
63.3	424.0
63.2	425.0
63.1	414.0
63.0	405.0
62.9	425.0
62.8	425.0
62.7	466.0
62.6	426.0
62.5	436.0
62.4	451.0
62.3	450.0
62.2	443.0
62.1	446.0
62.0	483.0
61.9	502.0
61.8	512.0
61.7	494.0
61.6	486.0
61.5	477.0
61.4	509.0
61.3	494.0
61.2	509.0
61.1	530.0
61.0	514.0
60.9	534.0
60.8	515.0
60.7	514.0
60.6	542.0
60.5	533.0
60.4	565.0
60.3	576.0
60.2	596.0
60.1	596.0
60.0	605.0
59.9	560.0
59.8	609.0
59.7	570.0
59.6	586.0
59.5	578.0
59.4	595.0
59.3	589.0
59.2	582.0
59.1	608.0
59.0	607.0
58.9	563.0
58.8	537.0
58.7	507.0
58.6	517.0
58.5	494.0
58.4	508.0
58.3	535.0
58.2	501.0
58.1	500.0
58.0	485.0
57.9	460.0
57.8	479.0
57.7	449.0
57.6	400.0
57.5	398.0
57.4	411.0
57.3	379.0
57.2	403.0
57.1	390.0
57.0	399.0
56.9	387.0
56.8	400.0
56.7	389.0
56.6	389.0
56.5	366.0
56.4	390.0
56.3	362.0
56.2	355.0
56.1	381.0
56.0	369.0
55.9	353.0
55.8	347.0
55.7	370.0
55.6	371.0
55.5	362.0
55.4	342.0
55.3	355.0
55.2	363.0
55.1	372.0
55.0	376.0
54.9	368.0
54.8	326.0
54.7	376.0
54.6	365.0
54.5	330.0
54.4	343.0
54.3	341.0
54.2	364.0
54.1	361.0
54.0	334.0
53.9	342.0
53.8	352.0
53.7	361.0
53.6	338.0
53.5	345.0
53.4	332.0
53.3	351.0
53.2	348.0
53.1	362.0
53.0	358.0
52.9	340.0
52.8	334.0
52.7	329.0
52.6	327.0
52.5	341.0
52.4	352.0
52.3	352.0
52.2	361.0
52.1	372.0
52.0	332.0
51.9	327.0
51.8	345.0
51.7	326.0
51.6	334.0
51.5	362.0
51.4	347.0
51.3	366.0
51.2	334.0
51.1	355.0
51.0	369.0
50.9	370.0
50.8	336.0
50.7	349.0
50.6	359.0
50.5	339.0
50.4	340.0
50.3	342.0
50.2	362.0
50.1	338.0
50.0	364.0
49.9	342.0
49.8	354.0
49.7	345.0
49.6	332.0
49.5	357.0
49.4	381.0
49.3	336.0
49.2	335.0
49.1	348.0
49.0	369.0
48.9	358.0
48.8	383.0
48.7	344.0
48.6	374.0
48.5	357.0
48.4	351.0
48.3	344.0
48.2	350.0
48.1	340.0
48.0	332.0
47.9	322.0
47.8	317.0
47.7	342.0
47.6	338.0
47.5	353.0
47.4	350.0
47.3	337.0
47.2	351.0
47.1	350.0
47.0	327.0
46.9	379.0
46.8	387.0
46.7	356.0
46.6	359.0
46.5	345.0
46.4	324.0
46.3	309.0
46.2	301.0
46.1	326.0
46.0	330.0
45.9	340.0
45.8	337.0
45.7	356.0
45.6	329.0
45.5	312.0
45.4	298.0
45.3	329.0
45.2	357.0
45.1	345.0
45.0	307.0
44.9	316.0
44.8	321.0
44.7	354.0
44.6	340.0
44.5	351.0
44.4	341.0
44.3	318.0
44.2	343.0
44.1	349.0
44.0	317.0