File: XPS/Casa format/MX-UT 0p5 20Ap location U1 in image_MXUT0p520Apwide_wide.txt
BE/eV	PE: 160.0 eV
1200.0	43756.0
1199.0	43858.0
1198.0	43601.0
1197.0	43994.0
1196.0	43846.0
1195.0	44050.0
1194.0	44375.0
1193.0	44156.0
1192.0	44320.0
1191.0	44507.0
1190.0	44359.0
1189.0	44676.0
1188.0	44565.0
1187.0	44753.0
1186.0	44993.0
1185.0	45084.0
1184.0	44909.0
1183.0	45140.0
1182.0	45487.0
1181.0	45483.0
1180.0	45782.0
1179.0	45677.0
1178.0	45755.0
1177.0	45534.0
1176.0	46011.0
1175.0	46271.0
1174.0	46372.0
1173.0	46533.0
1172.0	46277.0
1171.0	46339.0
1170.0	46431.0
1169.0	46715.0
1168.0	46770.0
1167.0	46876.0
1166.0	46970.0
1165.0	46960.0
1164.0	47319.0
1163.0	47283.0
1162.0	47526.0
1161.0	47729.0
1160.0	47828.0
1159.0	47285.0
1158.0	47998.0
1157.0	48129.0
1156.0	48553.0
1155.0	48445.0
1154.0	48767.0
1153.0	48856.0
1152.0	48780.0
1151.0	48766.0
1150.0	48835.0
1149.0	48927.0
1148.0	48772.0
1147.0	48488.0
1146.0	48735.0
1145.0	49125.0
1144.0	49054.0
1143.0	49083.0
1142.0	49137.0
1141.0	48873.0
1140.0	48604.0
1139.0	49352.0
1138.0	49581.0
1137.0	49429.0
1136.0	49832.0
1135.0	50467.0
1134.0	51081.0
1133.0	50906.0
1132.0	51240.0
1131.0	51221.0
1130.0	51257.0
1129.0	51039.0
1128.0	51148.0
1127.0	51114.0
1126.0	51564.0
1125.0	51879.0
1124.0	52242.0
1123.0	51990.0
1122.0	51402.0
1121.0	51184.0
1120.0	50992.0
1119.0	50737.0
1118.0	50339.0
1117.0	50384.0
1116.0	50633.0
1115.0	50600.0
1114.0	50605.0
1113.0	50758.0
1112.0	51496.0
1111.0	51870.0
1110.0	52028.0
1109.0	52716.0
1108.0	53426.0
1107.0	54198.0
1106.0	55087.0
1105.0	56260.0
1104.0	56726.0
1103.0	56629.0
1102.0	55999.0
1101.0	54447.0
1100.0	54538.0
1099.0	54012.0
1098.0	52315.0
1097.0	49504.0
1096.0	46451.0
1095.0	44957.0
1094.0	44092.0
1093.0	43405.0
1092.0	42854.0
1091.0	42451.0
1090.0	42299.0
1089.0	41613.0
1088.0	41615.0
1087.0	41433.0
1086.0	41254.0
1085.0	41409.0
1084.0	41419.0
1083.0	41108.0
1082.0	40919.0
1081.0	40962.0
1080.0	41006.0
1079.0	41198.0
1078.0	41607.0
1077.0	41775.0
1076.0	41924.0
1075.0	42125.0
1074.0	42435.0
1073.0	43052.0
1072.0	43855.0
1071.0	45394.0
1070.0	46064.0
1069.0	46273.0
1068.0	46176.0
1067.0	45419.0
1066.0	44858.0
1065.0	43697.0
1064.0	41545.0
1063.0	40194.0
1062.0	39148.0
1061.0	38982.0
1060.0	38914.0
1059.0	38535.0
1058.0	38495.0
1057.0	38506.0
1056.0	38253.0
1055.0	38311.0
1054.0	38545.0
1053.0	38560.0
1052.0	38643.0
1051.0	38545.0
1050.0	38281.0
1049.0	38527.0
1048.0	38378.0
1047.0	38780.0
1046.0	38522.0
1045.0	38635.0
1044.0	39004.0
1043.0	38871.0
1042.0	38957.0
1041.0	38955.0
1040.0	39492.0
1039.0	39372.0
1038.0	39390.0
1037.0	39982.0
1036.0	39741.0
1035.0	39796.0
1034.0	39811.0
1033.0	39420.0
1032.0	39195.0
1031.0	39246.0
1030.0	39326.0
1029.0	39328.0
1028.0	39391.0
1027.0	39283.0
1026.0	39677.0
1025.0	39354.0
1024.0	39465.0
1023.0	39490.0
1022.0	39510.0
1021.0	39649.0
1020.0	39971.0
1019.0	39602.0
1018.0	39841.0
1017.0	39847.0
1016.0	39781.0
1015.0	39732.0
1014.0	39970.0
1013.0	40049.0
1012.0	40238.0
1011.0	40135.0
1010.0	40045.0
1009.0	40281.0
1008.0	40298.0
1007.0	40382.0
1006.0	40413.0
1005.0	40332.0
1004.0	40854.0
1003.0	40795.0
1002.0	40616.0
1001.0	40768.0
1000.0	40903.0
999.0	41160.0
998.0	41201.0
997.0	41198.0
996.0	41318.0
995.0	41344.0
994.0	41589.0
993.0	41708.0
992.0	41892.0
991.0	41483.0
990.0	41575.0
989.0	41240.0
988.0	41072.0
987.0	41078.0
986.0	41348.0
985.0	41296.0
984.0	41109.0
983.0	41050.0
982.0	41252.0
981.0	41283.0
980.0	41932.0
979.0	42250.0
978.0	42639.0
977.0	42879.0
976.0	43144.0
975.0	43936.0
974.0	44387.0
973.0	45070.0
972.0	45743.0
971.0	44785.0
970.0	42854.0
969.0	41375.0
968.0	40328.0
967.0	40487.0
966.0	40403.0
965.0	39957.0
964.0	39703.0
963.0	39697.0
962.0	39962.0
961.0	39706.0
960.0	39791.0
959.0	39627.0
958.0	39992.0
957.0	39624.0
956.0	39702.0
955.0	40201.0
954.0	39841.0
953.0	39867.0
952.0	39802.0
951.0	39892.0
950.0	39861.0
949.0	40061.0
948.0	40106.0
947.0	40027.0
946.0	40333.0
945.0	40161.0
944.0	40298.0
943.0	40517.0
942.0	40243.0
941.0	40110.0
940.0	40387.0
939.0	40275.0
938.0	40138.0
937.0	40427.0
936.0	40486.0
935.0	40561.0
934.0	40392.0
933.0	40732.0
932.0	40804.0
931.0	40778.0
930.0	40586.0
929.0	40679.0
928.0	41193.0
927.0	40888.0
926.0	40614.0
925.0	40907.0
924.0	41142.0
923.0	41189.0
922.0	41458.0
921.0	41620.0
920.0	41543.0
919.0	41456.0
918.0	41418.0
917.0	41571.0
916.0	41485.0
915.0	41541.0
914.0	41383.0
913.0	41501.0
912.0	41815.0
911.0	41666.0
910.0	41849.0
909.0	41928.0
908.0	41805.0
907.0	42113.0
906.0	41926.0
905.0	42048.0
904.0	42033.0
903.0	42386.0
902.0	42117.0
901.0	42167.0
900.0	42115.0
899.0	42048.0
898.0	42030.0
897.0	42367.0
896.0	42509.0
895.0	42354.0
894.0	42684.0
893.0	42476.0
892.0	42501.0
891.0	42816.0
890.0	42850.0
889.0	42761.0
888.0	42817.0
887.0	42924.0
886.0	42642.0
885.0	42990.0
884.0	43306.0
883.0	43084.0
882.0	43598.0
881.0	43689.0
880.0	43478.0
879.0	43708.0
878.0	43742.0
877.0	43915.0
876.0	44055.0
875.0	43926.0
874.0	43972.0
873.0	44244.0
872.0	44146.0
871.0	43943.0
870.0	43682.0
869.0	43859.0
868.0	43745.0
867.0	43846.0
866.0	43795.0
865.0	43798.0
864.0	43901.0
863.0	44026.0
862.0	44061.0
861.0	44465.0
860.0	44447.0
859.0	44481.0
858.0	44680.0
857.0	45028.0
856.0	45630.0
855.0	46000.0
854.0	46174.0
853.0	45538.0
852.0	44845.0
851.0	44783.0
850.0	44489.0
849.0	44528.0
848.0	44615.0
847.0	45031.0
846.0	44990.0
845.0	44982.0
844.0	44779.0
843.0	44605.0
842.0	44342.0
841.0	44332.0
840.0	44371.0
839.0	44599.0
838.0	44770.0
837.0	44713.0
836.0	45108.0
835.0	45348.0
834.0	45727.0
833.0	45877.0
832.0	46042.0
831.0	46740.0
830.0	47713.0
829.0	48804.0
828.0	50811.0
827.0	51432.0
826.0	47493.0
825.0	44469.0
824.0	43802.0
823.0	43484.0
822.0	43406.0
821.0	43812.0
820.0	43600.0
819.0	43563.0
818.0	43385.0
817.0	43789.0
816.0	44218.0
815.0	43978.0
814.0	43709.0
813.0	43832.0
812.0	44048.0
811.0	44042.0
810.0	43941.0
809.0	44028.0
808.0	43937.0
807.0	44226.0
806.0	44337.0
805.0	44340.0
804.0	44306.0
803.0	44152.0
802.0	44400.0
801.0	44372.0
800.0	44306.0
799.0	44175.0
798.0	44331.0
797.0	44457.0
796.0	44359.0
795.0	44260.0
794.0	44710.0
793.0	44840.0
792.0	44821.0
791.0	44896.0
790.0	44849.0
789.0	44387.0
788.0	44808.0
787.0	44953.0
786.0	44951.0
785.0	44755.0
784.0	44986.0
783.0	44910.0
782.0	44956.0
781.0	45203.0
780.0	45522.0
779.0	44957.0
778.0	45077.0
777.0	45499.0
776.0	45398.0
775.0	45268.0
774.0	45396.0
773.0	45556.0
772.0	45600.0
771.0	45781.0
770.0	45876.0
769.0	45811.0
768.0	45931.0
767.0	45710.0
766.0	45895.0
765.0	45890.0
764.0	45915.0
763.0	46184.0
762.0	46042.0
761.0	45844.0
760.0	46411.0
759.0	46362.0
758.0	45744.0
757.0	46038.0
756.0	46163.0
755.0	46230.0
754.0	46440.0
753.0	46607.0
752.0	46720.0
751.0	46740.0
750.0	46708.0
749.0	46550.0
748.0	46672.0
747.0	46738.0
746.0	46652.0
745.0	46845.0
744.0	46542.0
743.0	46658.0
742.0	46783.0
741.0	46950.0
740.0	47160.0
739.0	46913.0
738.0	47505.0
737.0	47328.0
736.0	47367.0
735.0	47322.0
734.0	47496.0
733.0	47179.0
732.0	47198.0
731.0	47740.0
730.0	47398.0
729.0	47502.0
728.0	47524.0
727.0	47501.0
726.0	47152.0
725.0	47488.0
724.0	47481.0
723.0	47756.0
722.0	47576.0
721.0	47620.0
720.0	47688.0
719.0	47446.0
718.0	47801.0
717.0	47983.0
716.0	48010.0
715.0	48333.0
714.0	48523.0
713.0	48758.0
712.0	48747.0
711.0	48527.0
710.0	48933.0
709.0	48652.0
708.0	48951.0
707.0	48891.0
706.0	49070.0
705.0	48704.0
704.0	48586.0
703.0	48376.0
702.0	48081.0
701.0	48561.0
700.0	48376.0
699.0	48242.0
698.0	47931.0
697.0	47936.0
696.0	48300.0
695.0	48151.0
694.0	48084.0
693.0	48236.0
692.0	48446.0
691.0	48347.0
690.0	48673.0
689.0	48949.0
688.0	49658.0
687.0	50663.0
686.0	53910.0
685.0	60304.0
684.0	61019.0
683.0	53417.0
682.0	48902.0
681.0	48129.0
680.0	48025.0
679.0	47946.0
678.0	47774.0
677.0	48129.0
676.0	47900.0
675.0	47985.0
674.0	48082.0
673.0	47871.0
672.0	47923.0
671.0	48187.0
670.0	47863.0
669.0	47812.0
668.0	48363.0
667.0	48288.0
666.0	48196.0
665.0	48294.0
664.0	48286.0
663.0	48450.0
662.0	48565.0
661.0	48483.0
660.0	48757.0
659.0	48454.0
658.0	48671.0
657.0	49090.0
656.0	49057.0
655.0	48903.0
654.0	48934.0
653.0	48712.0
652.0	48901.0
651.0	49197.0
650.0	49094.0
649.0	49135.0
648.0	48901.0
647.0	49119.0
646.0	49524.0
645.0	49241.0
644.0	49248.0
643.0	49461.0
642.0	49637.0
641.0	49491.0
640.0	49448.0
639.0	49843.0
638.0	50080.0
637.0	50033.0
636.0	49944.0
635.0	50119.0
634.0	50187.0
633.0	50132.0
632.0	50286.0
631.0	50342.0
630.0	50210.0
629.0	50109.0
628.0	49867.0
627.0	50121.0
626.0	50619.0
625.0	49864.0
624.0	50310.0
623.0	50310.0
622.0	50581.0
621.0	50814.0
620.0	50927.0
619.0	50781.0
618.0	50812.0
617.0	51149.0
616.0	51189.0
615.0	51301.0
614.0	51177.0
613.0	51016.0
612.0	51525.0
611.0	51609.0
610.0	51431.0
609.0	51675.0
608.0	51700.0
607.0	51400.0
606.0	51533.0
605.0	51379.0
604.0	51543.0
603.0	52143.0
602.0	52048.0
601.0	52533.0
600.0	51810.0
599.0	52075.0
598.0	52349.0
597.0	51991.0
596.0	52083.0
595.0	52190.0
594.0	52566.0
593.0	52534.0
592.0	52739.0
591.0	52782.0
590.0	53141.0
589.0	52993.0
588.0	52984.0
587.0	53628.0
586.0	53749.0
585.0	53547.0
584.0	53672.0
583.0	54013.0
582.0	53746.0
581.0	54049.0
580.0	53882.0
579.0	54027.0
578.0	54304.0
577.0	54311.0
576.0	54193.0
575.0	54489.0
574.0	54403.0
573.0	54165.0
572.0	54054.0
571.0	53749.0
570.0	53766.0
569.0	53868.0
568.0	53796.0
567.0	54712.0
566.0	55945.0
565.0	56487.0
564.0	57872.0
563.0	59064.0
562.0	59600.0
561.0	59128.0
560.0	57199.0
559.0	54722.0
558.0	53023.0
557.0	51937.0
556.0	50696.0
555.0	50132.0
554.0	50184.0
553.0	50076.0
552.0	49998.0
551.0	49821.0
550.0	49473.0
549.0	49043.0
548.0	49221.0
547.0	49406.0
546.0	49720.0
545.0	49234.0
544.0	49224.0
543.0	49215.0
542.0	48772.0
541.0	48904.0
540.0	48594.0
539.0	48616.0
538.0	48373.0
537.0	48531.0
536.0	48838.0
535.0	49255.0
534.0	50719.0
533.0	53352.0
532.0	55872.0
531.0	57221.0
530.0	59198.0
529.0	58885.0
528.0	52992.0
527.0	48477.0
526.0	47683.0
525.0	47517.0
524.0	47435.0
523.0	47813.0
522.0	47659.0
521.0	47552.0
520.0	47593.0
519.0	47661.0
518.0	47872.0
517.0	47622.0
516.0	47696.0
515.0	47794.0
514.0	47841.0
513.0	48211.0
512.0	48359.0
511.0	48611.0
510.0	48513.0
509.0	48931.0
508.0	48673.0
507.0	48527.0
506.0	48564.0
505.0	48913.0
504.0	48548.0
503.0	48836.0
502.0	48714.0
501.0	48555.0
500.0	48176.0
499.0	48287.0
498.0	48429.0
497.0	48721.0
496.0	48688.0
495.0	48531.0
494.0	48544.0
493.0	48451.0
492.0	48785.0
491.0	48819.0
490.0	49131.0
489.0	49514.0
488.0	49870.0
487.0	50282.0
486.0	50554.0
485.0	50913.0
484.0	50935.0
483.0	51125.0
482.0	51844.0
481.0	52028.0
480.0	52033.0
479.0	52435.0
478.0	52307.0
477.0	52431.0
476.0	52292.0
475.0	52288.0
474.0	52022.0
473.0	51648.0
472.0	51630.0
471.0	51009.0
470.0	50665.0
469.0	50353.0
468.0	50536.0
467.0	50442.0
466.0	50382.0
465.0	50807.0
464.0	52405.0
463.0	55973.0
462.0	60319.0
461.0	63220.0
460.0	60492.0
459.0	55573.0
458.0	55573.0
457.0	61485.0
456.0	71046.0
455.0	74166.0
454.0	60347.0
453.0	41874.0
452.0	34707.0
451.0	33352.0
450.0	32930.0
449.0	32938.0
448.0	32713.0
447.0	32714.0
446.0	32551.0
445.0	32441.0
444.0	32299.0
443.0	32632.0
442.0	32592.0
441.0	32466.0
440.0	32254.0
439.0	32322.0
438.0	32391.0
437.0	32658.0
436.0	32659.0
435.0	32459.0
434.0	32318.0
433.0	32643.0
432.0	32612.0
431.0	32564.0
430.0	32436.0
429.0	32975.0
428.0	32817.0
427.0	32963.0
426.0	32701.0
425.0	32918.0
424.0	32760.0
423.0	32967.0
422.0	32880.0
421.0	33104.0
420.0	32969.0
419.0	32731.0
418.0	32607.0
417.0	32907.0
416.0	33267.0
415.0	33132.0
414.0	32767.0
413.0	32891.0
412.0	33214.0
411.0	32829.0
410.0	32933.0
409.0	32928.0
408.0	33226.0
407.0	33017.0
406.0	33185.0
405.0	33065.0
404.0	33089.0
403.0	33332.0
402.0	33480.0
401.0	33855.0
400.0	34029.0
399.0	33749.0
398.0	33753.0
397.0	33691.0
396.0	33532.0
395.0	33434.0
394.0	33652.0
393.0	33542.0
392.0	33464.0
391.0	33367.0
390.0	33313.0
389.0	33412.0
388.0	33394.0
387.0	33349.0
386.0	33456.0
385.0	33634.0
384.0	33593.0
383.0	33914.0
382.0	33677.0
381.0	33949.0
380.0	33921.0
379.0	33534.0
378.0	33580.0
377.0	33953.0
376.0	33896.0
375.0	34053.0
374.0	33735.0
373.0	33798.0
372.0	33907.0
371.0	34208.0
370.0	34200.0
369.0	33832.0
368.0	33689.0
367.0	33849.0
366.0	33834.0
365.0	33943.0
364.0	34022.0
363.0	34232.0
362.0	34366.0
361.0	34289.0
360.0	34099.0
359.0	34253.0
358.0	34258.0
357.0	34381.0
356.0	34361.0
355.0	34575.0
354.0	34823.0
353.0	34606.0
352.0	34796.0
351.0	34937.0
350.0	35075.0
349.0	35266.0
348.0	35487.0
347.0	35497.0
346.0	35323.0
345.0	35528.0
344.0	35384.0
343.0	35179.0
342.0	35170.0
341.0	35518.0
340.0	35245.0
339.0	34823.0
338.0	34853.0
337.0	34845.0
336.0	34595.0
335.0	34324.0
334.0	34171.0
333.0	33801.0
332.0	33892.0
331.0	33565.0
330.0	33497.0
329.0	33662.0
328.0	33550.0
327.0	33951.0
326.0	34152.0
325.0	34166.0
324.0	34877.0
323.0	35504.0
322.0	36071.0
321.0	36314.0
320.0	36978.0
319.0	37699.0
318.0	37619.0
317.0	38050.0
316.0	38603.0
315.0	38732.0
314.0	38799.0
313.0	38775.0
312.0	38965.0
311.0	38350.0
310.0	37366.0
309.0	36475.0
308.0	35231.0
307.0	33724.0
306.0	31973.0
305.0	30507.0
304.0	28651.0
303.0	27354.0
302.0	25665.0
301.0	23827.0
300.0	22602.0
299.0	21604.0
298.0	20751.0
297.0	20745.0
296.0	20577.0
295.0	21290.0
294.0	22992.0
293.0	24357.0
292.0	27030.0
291.0	30117.0
290.0	32297.0
289.0	33207.0
288.0	34518.0
287.0	39204.0
286.0	54068.0
285.0	101321.0
284.0	177974.0
283.0	126890.0
282.0	39649.0
281.0	16355.0
280.0	9641.0
279.0	5766.0
278.0	4760.0
277.0	4310.0
276.0	4014.0
275.0	3975.0
274.0	3975.0
273.0	3983.0
272.0	4071.0
271.0	4277.0
270.0	4491.0
269.0	4438.0
268.0	4062.0
267.0	3778.0
266.0	3738.0
265.0	3752.0
264.0	3647.0
263.0	3583.0
262.0	3575.0
261.0	3591.0
260.0	3609.0
259.0	3618.0
258.0	3657.0
257.0	3689.0
256.0	3579.0
255.0	3603.0
254.0	3686.0
253.0	3617.0
252.0	3554.0
251.0	3725.0
250.0	3611.0
249.0	3704.0
248.0	3700.0
247.0	3635.0
246.0	3658.0
245.0	3705.0
244.0	3760.0
243.0	3646.0
242.0	3639.0
241.0	3636.0
240.0	3701.0
239.0	3687.0
238.0	3687.0
237.0	3820.0
236.0	3795.0
235.0	3669.0
234.0	3721.0
233.0	3777.0
232.0	3710.0
231.0	3787.0
230.0	3695.0
229.0	3661.0
228.0	3761.0
227.0	3786.0
226.0	3885.0
225.0	3815.0
224.0	3885.0
223.0	3820.0
222.0	3830.0
221.0	3864.0
220.0	3753.0
219.0	3801.0
218.0	3759.0
217.0	3798.0
216.0	3735.0
215.0	3897.0
214.0	3882.0
213.0	3839.0
212.0	3766.0
211.0	3792.0
210.0	3777.0
209.0	3771.0
208.0	3733.0
207.0	3697.0
206.0	3757.0
205.0	3816.0
204.0	3884.0
203.0	3929.0
202.0	4126.0
201.0	4517.0
200.0	4984.0
199.0	5323.0
198.0	4832.0
197.0	4100.0
196.0	3757.0
195.0	3653.0
194.0	3653.0
193.0	3698.0
192.0	3776.0
191.0	3694.0
190.0	3734.0
189.0	3700.0
188.0	3702.0
187.0	3666.0
186.0	3822.0
185.0	3676.0
184.0	3752.0
183.0	3726.0
182.0	3744.0
181.0	3748.0
180.0	3711.0
179.0	3784.0
178.0	3677.0
177.0	3695.0
176.0	3758.0
175.0	3815.0
174.0	3761.0
173.0	3811.0
172.0	3851.0
171.0	3770.0
170.0	3738.0
169.0	3818.0
168.0	3800.0
167.0	3839.0
166.0	3732.0
165.0	3815.0
164.0	3731.0
163.0	3816.0
162.0	3887.0
161.0	3844.0
160.0	3835.0
159.0	3855.0
158.0	3947.0
157.0	3890.0
156.0	3944.0
155.0	3962.0
154.0	4051.0
153.0	4104.0
152.0	4101.0
151.0	3950.0
150.0	3866.0
149.0	3968.0
148.0	3929.0
147.0	3884.0
146.0	3942.0
145.0	3990.0
144.0	3929.0
143.0	4003.0
142.0	3997.0
141.0	4012.0
140.0	3949.0
139.0	4013.0
138.0	4056.0
137.0	4079.0
136.0	4067.0
135.0	4053.0
134.0	4069.0
133.0	4115.0
132.0	4029.0
131.0	4065.0
130.0	4063.0
129.0	4135.0
128.0	4137.0
127.0	4127.0
126.0	4213.0
125.0	4232.0
124.0	4237.0
123.0	4259.0
122.0	4092.0
121.0	4215.0
120.0	4197.0
119.0	4148.0
118.0	4162.0
117.0	4230.0
116.0	4241.0
115.0	4236.0
114.0	4254.0
113.0	4223.0
112.0	4290.0
111.0	4374.0
110.0	4291.0
109.0	4280.0
108.0	4341.0
107.0	4369.0
106.0	4380.0
105.0	4423.0
104.0	4481.0
103.0	4474.0
102.0	4525.0
101.0	4483.0
100.0	4441.0
99.0	4435.0
98.0	4393.0
97.0	4331.0
96.0	4425.0
95.0	4320.0
94.0	4455.0
93.0	4409.0
92.0	4420.0
91.0	4485.0
90.0	4478.0
89.0	4594.0
88.0	4805.0
87.0	4705.0
86.0	4689.0
85.0	4739.0
84.0	4729.0
83.0	4909.0
82.0	4776.0
81.0	4908.0
80.0	4776.0
79.0	4733.0
78.0	4618.0
77.0	4587.0
76.0	4737.0
75.0	4739.0
74.0	4591.0
73.0	4577.0
72.0	4477.0
71.0	4587.0
70.0	4412.0
69.0	4362.0
68.0	4442.0
67.0	4359.0
66.0	4491.0
65.0	4643.0
64.0	4880.0
63.0	5205.0
62.0	5660.0
61.0	6266.0
60.0	6882.0
59.0	6922.0
58.0	6293.0
57.0	5422.0
56.0	4704.0
55.0	4474.0
54.0	4233.0
53.0	4276.0
52.0	4282.0
51.0	4221.0
50.0	4153.0
49.0	4251.0
48.0	4221.0
47.0	4065.0
46.0	4055.0
45.0	3932.0
44.0	3896.0
43.0	3833.0
42.0	3901.0
41.0	3944.0
40.0	4105.0
39.0	4530.0
38.0	5013.0
37.0	5765.0
36.0	6871.0
35.0	8403.0
34.0	8636.0
33.0	6666.0
32.0	3986.0
31.0	2619.0
30.0	2428.0
29.0	2392.0
28.0	2133.0
27.0	1817.0
26.0	1697.0
25.0	1786.0
24.0	1898.0
23.0	1992.0
22.0	2321.0
21.0	2600.0
20.0	2667.0
19.0	2560.0
18.0	2493.0
17.0	2487.0
16.0	2457.0
15.0	2238.0
14.0	2067.0
13.0	1963.0
12.0	1988.0
11.0	1896.0
10.0	1665.0
9.0	1560.0
8.0	1494.0
7.0	1329.0
6.0	1283.0
5.0	1231.0
4.0	1059.0
3.0	847.0
2.0	560.0
1.0	304.0
0.0	141.0
-1.0	64.0
-2.0	18.0
-3.0	4.0
-4.0	4.0
-5.0	3.0