File: XPS/Casa format/UT 18 Ap location T1 in image_UT18ApTi3p_Ti3p.txt
BE/eV	PE: 20.0 eV
49.0	171.0
48.9	158.0
48.8	173.0
48.7	159.0
48.6	148.0
48.5	160.0
48.4	161.0
48.3	159.0
48.2	166.0
48.1	178.0
48.0	166.0
47.9	161.0
47.8	177.0
47.7	167.0
47.6	156.0
47.5	160.0
47.4	170.0
47.3	171.0
47.2	177.0
47.1	163.0
47.0	173.0
46.9	162.0
46.8	169.0
46.7	173.0
46.6	174.0
46.5	162.0
46.4	163.0
46.3	166.0
46.2	170.0
46.1	177.0
46.0	173.0
45.9	172.0
45.8	172.0
45.7	164.0
45.6	178.0
45.5	173.0
45.4	163.0
45.3	153.0
45.2	165.0
45.1	177.0
45.0	171.0
44.9	166.0
44.8	170.0
44.7	190.0
44.6	175.0
44.5	170.0
44.4	174.0
44.3	187.0
44.2	185.0
44.1	183.0
44.0	154.0
43.9	157.0
43.8	164.0
43.7	165.0
43.6	180.0
43.5	188.0
43.4	181.0
43.3	168.0
43.2	156.0
43.1	148.0
43.0	156.0
42.9	150.0
42.8	163.0
42.7	164.0
42.6	156.0
42.5	162.0
42.4	167.0
42.3	172.0
42.2	170.0
42.1	135.0
42.0	162.0
41.9	156.0
41.8	168.0
41.7	159.0
41.6	154.0
41.5	158.0
41.4	165.0
41.3	151.0
41.2	175.0
41.1	162.0
41.0	149.0
40.9	157.0
40.8	137.0
40.7	169.0
40.6	134.0
40.5	151.0
40.4	162.0
40.3	158.0
40.2	157.0
40.1	160.0
40.0	159.0
39.9	152.0
39.8	153.0
39.7	156.0
39.6	166.0
39.5	170.0
39.4	160.0
39.3	153.0
39.2	139.0
39.1	147.0
39.0	157.0
38.9	166.0
38.8	152.0
38.7	166.0
38.6	167.0
38.5	168.0
38.4	155.0
38.3	133.0
38.2	127.0
38.1	148.0
38.0	142.0
37.9	127.0
37.8	148.0
37.7	132.0
37.6	146.0
37.5	160.0
37.4	155.0
37.3	154.0
37.2	132.0
37.1	138.0
37.0	131.0
36.9	134.0
36.8	148.0
36.7	141.0
36.6	138.0
36.5	137.0
36.4	127.0
36.3	136.0
36.2	145.0
36.1	136.0
36.0	151.0
35.9	134.0
35.8	141.0
35.7	140.0
35.6	143.0
35.5	139.0
35.4	133.0
35.3	136.0
35.2	146.0
35.1	153.0
35.0	145.0
34.9	142.0
34.8	138.0
34.7	128.0
34.6	122.0
34.5	144.0
34.4	130.0
34.3	140.0
34.2	125.0
34.1	130.0
34.0	132.0
33.9	114.0
33.8	120.0
33.7	139.0
33.6	127.0
33.5	134.0
33.4	116.0
33.3	127.0
33.2	131.0
33.1	135.0
33.0	134.0
32.9	130.0
32.8	110.0
32.7	114.0
32.6	131.0
32.5	131.0
32.4	123.0
32.3	124.0
32.2	143.0
32.1	133.0
32.0	121.0
31.9	127.0
31.8	110.0
31.7	131.0
31.6	114.0
31.5	120.0
31.4	114.0
31.3	120.0
31.2	111.0
31.1	110.0
31.0	101.0
30.9	124.0
30.8	114.0
30.7	126.0
30.6	111.0
30.5	128.0
30.4	134.0
30.3	122.0
30.2	116.0
30.1	116.0
30.0	117.0
29.9	116.0
29.8	111.0
29.7	128.0
29.6	125.0
29.5	115.0
29.4	112.0
29.3	132.0
29.2	144.0
29.1	130.0
29.0	132.0
28.9	134.0
28.8	128.0
28.7	121.0
28.6	145.0
28.5	121.0
28.4	131.0
28.3	123.0
28.2	120.0
28.1	125.0
28.0	131.0
27.9	122.0
27.8	131.0
27.7	139.0
27.6	140.0
27.5	148.0
27.4	147.0
27.3	129.0
27.2	134.0
27.1	143.0
27.0	136.0
26.9	128.0
26.8	140.0
26.7	144.0
26.6	147.0
26.5	134.0
26.4	132.0
26.3	145.0
26.2	124.0
26.1	140.0
26.0	159.0
25.9	149.0
25.8	160.0
25.7	157.0
25.6	143.0
25.5	129.0
25.4	149.0
25.3	162.0
25.2	165.0
25.1	162.0
25.0	144.0
24.9	154.0
24.8	166.0
24.7	158.0
24.6	148.0
24.5	155.0
24.4	178.0
24.3	168.0
24.2	142.0
24.1	146.0
24.0	157.0
23.9	151.0
23.8	159.0
23.7	167.0
23.6	165.0
23.5	163.0
23.4	158.0
23.3	149.0
23.2	148.0
23.1	166.0
23.0	156.0
22.9	170.0
22.8	173.0
22.7	168.0
22.6	176.0
22.5	163.0
22.4	173.0
22.3	169.0
22.2	156.0
22.1	176.0
22.0	184.0
21.9	196.0
21.8	199.0
21.7	202.0
21.6	211.0
21.5	194.0
21.4	205.0
21.3	211.0
21.2	243.0
21.1	227.0
21.0	239.0
20.9	237.0
20.8	214.0
20.7	237.0
20.6	246.0
20.5	237.0
20.4	270.0
20.3	273.0
20.2	299.0
20.1	262.0
20.0	240.0
19.9	274.0
19.8	277.0
19.7	265.0
19.6	247.0
19.5	260.0
19.4	279.0
19.3	259.0
19.2	265.0
19.1	271.0
19.0	286.0