File: XPS/Casa format/UT 18 Ap location T1 in image_UT18Apwide_wide.txt
BE/eV	PE: 160.0 eV
1200.0	21098.0
1199.0	21169.0
1198.0	20893.0
1197.0	20854.0
1196.0	20900.0
1195.0	20891.0
1194.0	20907.0
1193.0	20977.0
1192.0	20854.0
1191.0	20967.0
1190.0	21226.0
1189.0	21313.0
1188.0	21078.0
1187.0	21025.0
1186.0	20958.0
1185.0	21026.0
1184.0	20968.0
1183.0	21178.0
1182.0	21222.0
1181.0	21389.0
1180.0	21153.0
1179.0	21236.0
1178.0	21183.0
1177.0	21537.0
1176.0	21459.0
1175.0	21537.0
1174.0	21512.0
1173.0	21566.0
1172.0	21572.0
1171.0	21869.0
1170.0	22012.0
1169.0	21729.0
1168.0	21672.0
1167.0	21864.0
1166.0	21849.0
1165.0	21713.0
1164.0	22069.0
1163.0	21968.0
1162.0	21841.0
1161.0	21874.0
1160.0	21900.0
1159.0	21874.0
1158.0	21810.0
1157.0	21959.0
1156.0	21867.0
1155.0	21889.0
1154.0	21821.0
1153.0	22007.0
1152.0	21929.0
1151.0	22101.0
1150.0	22078.0
1149.0	22157.0
1148.0	22134.0
1147.0	22142.0
1146.0	22136.0
1145.0	22367.0
1144.0	22251.0
1143.0	22334.0
1142.0	22385.0
1141.0	22318.0
1140.0	22345.0
1139.0	22342.0
1138.0	22330.0
1137.0	22320.0
1136.0	22269.0
1135.0	22267.0
1134.0	22453.0
1133.0	22350.0
1132.0	22594.0
1131.0	22739.0
1130.0	22506.0
1129.0	22415.0
1128.0	22582.0
1127.0	22677.0
1126.0	22698.0
1125.0	22729.0
1124.0	22707.0
1123.0	22768.0
1122.0	22740.0
1121.0	22830.0
1120.0	22839.0
1119.0	22918.0
1118.0	22977.0
1117.0	23058.0
1116.0	23125.0
1115.0	22937.0
1114.0	23077.0
1113.0	23301.0
1112.0	23221.0
1111.0	23180.0
1110.0	23275.0
1109.0	23069.0
1108.0	23519.0
1107.0	23490.0
1106.0	23416.0
1105.0	23606.0
1104.0	23497.0
1103.0	23190.0
1102.0	23455.0
1101.0	23432.0
1100.0	23589.0
1099.0	23351.0
1098.0	23445.0
1097.0	23629.0
1096.0	23745.0
1095.0	23496.0
1094.0	23493.0
1093.0	23596.0
1092.0	23854.0
1091.0	23796.0
1090.0	23867.0
1089.0	23484.0
1088.0	23719.0
1087.0	23900.0
1086.0	24023.0
1085.0	23968.0
1084.0	23914.0
1083.0	23971.0
1082.0	24174.0
1081.0	24190.0
1080.0	24006.0
1079.0	23740.0
1078.0	24034.0
1077.0	24090.0
1076.0	23995.0
1075.0	24249.0
1074.0	24434.0
1073.0	24652.0
1072.0	24429.0
1071.0	25017.0
1070.0	24844.0
1069.0	24387.0
1068.0	24289.0
1067.0	24553.0
1066.0	24628.0
1065.0	24542.0
1064.0	24782.0
1063.0	24662.0
1062.0	24769.0
1061.0	24601.0
1060.0	24990.0
1059.0	24910.0
1058.0	24738.0
1057.0	24679.0
1056.0	25003.0
1055.0	24810.0
1054.0	24901.0
1053.0	25106.0
1052.0	25155.0
1051.0	25109.0
1050.0	25175.0
1049.0	25150.0
1048.0	25269.0
1047.0	25345.0
1046.0	25163.0
1045.0	25309.0
1044.0	25291.0
1043.0	25387.0
1042.0	25523.0
1041.0	25592.0
1040.0	25747.0
1039.0	25660.0
1038.0	25717.0
1037.0	25785.0
1036.0	25844.0
1035.0	25650.0
1034.0	25971.0
1033.0	26119.0
1032.0	25813.0
1031.0	26092.0
1030.0	26231.0
1029.0	26382.0
1028.0	26327.0
1027.0	26538.0
1026.0	26410.0
1025.0	26549.0
1024.0	26556.0
1023.0	26479.0
1022.0	26644.0
1021.0	26727.0
1020.0	27161.0
1019.0	27061.0
1018.0	26937.0
1017.0	27038.0
1016.0	27032.0
1015.0	27247.0
1014.0	27260.0
1013.0	27180.0
1012.0	27217.0
1011.0	27069.0
1010.0	27313.0
1009.0	27513.0
1008.0	27431.0
1007.0	27754.0
1006.0	27935.0
1005.0	28149.0
1004.0	28377.0
1003.0	28195.0
1002.0	28426.0
1001.0	28894.0
1000.0	28928.0
999.0	28811.0
998.0	28672.0
997.0	28861.0
996.0	28916.0
995.0	28687.0
994.0	28873.0
993.0	28515.0
992.0	28624.0
991.0	28559.0
990.0	28414.0
989.0	28238.0
988.0	28538.0
987.0	28537.0
986.0	28502.0
985.0	28497.0
984.0	28751.0
983.0	28910.0
982.0	29376.0
981.0	29927.0
980.0	29973.0
979.0	30543.0
978.0	31066.0
977.0	31267.0
976.0	31454.0
975.0	31400.0
974.0	31065.0
973.0	30870.0
972.0	30497.0
971.0	30055.0
970.0	29615.0
969.0	29170.0
968.0	28582.0
967.0	27918.0
966.0	27379.0
965.0	27071.0
964.0	26913.0
963.0	26771.0
962.0	26598.0
961.0	26646.0
960.0	26721.0
959.0	26537.0
958.0	26553.0
957.0	26570.0
956.0	26668.0
955.0	26614.0
954.0	26648.0
953.0	26900.0
952.0	26719.0
951.0	26726.0
950.0	26542.0
949.0	26710.0
948.0	27127.0
947.0	27088.0
946.0	26912.0
945.0	26831.0
944.0	26581.0
943.0	26889.0
942.0	26977.0
941.0	26911.0
940.0	26910.0
939.0	27099.0
938.0	27222.0
937.0	27100.0
936.0	27208.0
935.0	27011.0
934.0	27082.0
933.0	27222.0
932.0	27428.0
931.0	27032.0
930.0	27058.0
929.0	27324.0
928.0	27346.0
927.0	27190.0
926.0	27146.0
925.0	27302.0
924.0	27410.0
923.0	27550.0
922.0	27383.0
921.0	27575.0
920.0	27705.0
919.0	27455.0
918.0	27553.0
917.0	27682.0
916.0	27527.0
915.0	27570.0
914.0	27644.0
913.0	27627.0
912.0	27795.0
911.0	27512.0
910.0	27549.0
909.0	27848.0
908.0	27722.0
907.0	27972.0
906.0	27876.0
905.0	27711.0
904.0	27994.0
903.0	27956.0
902.0	27625.0
901.0	27851.0
900.0	27870.0
899.0	27962.0
898.0	28034.0
897.0	28156.0
896.0	27912.0
895.0	27723.0
894.0	28103.0
893.0	28059.0
892.0	28083.0
891.0	28364.0
890.0	28002.0
889.0	28052.0
888.0	28042.0
887.0	28159.0
886.0	28426.0
885.0	28739.0
884.0	28518.0
883.0	28437.0
882.0	28416.0
881.0	28293.0
880.0	28198.0
879.0	28665.0
878.0	28338.0
877.0	28301.0
876.0	28577.0
875.0	28573.0
874.0	28713.0
873.0	28524.0
872.0	28805.0
871.0	28551.0
870.0	28706.0
869.0	28525.0
868.0	28629.0
867.0	28654.0
866.0	28798.0
865.0	28892.0
864.0	28749.0
863.0	28868.0
862.0	28880.0
861.0	28679.0
860.0	28951.0
859.0	29136.0
858.0	28948.0
857.0	28997.0
856.0	29045.0
855.0	29135.0
854.0	29158.0
853.0	29032.0
852.0	29035.0
851.0	29040.0
850.0	29312.0
849.0	28973.0
848.0	29167.0
847.0	28982.0
846.0	29317.0
845.0	29256.0
844.0	29325.0
843.0	28987.0
842.0	29004.0
841.0	29241.0
840.0	29206.0
839.0	29262.0
838.0	29227.0
837.0	29255.0
836.0	29512.0
835.0	29170.0
834.0	29191.0
833.0	29469.0
832.0	29594.0
831.0	29623.0
830.0	29583.0
829.0	29562.0
828.0	29525.0
827.0	29470.0
826.0	29401.0
825.0	29556.0
824.0	29838.0
823.0	29566.0
822.0	29701.0
821.0	29485.0
820.0	29680.0
819.0	29764.0
818.0	29650.0
817.0	29769.0
816.0	29890.0
815.0	29758.0
814.0	29740.0
813.0	30071.0
812.0	30144.0
811.0	29998.0
810.0	30215.0
809.0	30127.0
808.0	29988.0
807.0	30078.0
806.0	30199.0
805.0	30280.0
804.0	30085.0
803.0	30070.0
802.0	30077.0
801.0	30123.0
800.0	29964.0
799.0	30320.0
798.0	30501.0
797.0	30033.0
796.0	29977.0
795.0	30143.0
794.0	30358.0
793.0	30339.0
792.0	30162.0
791.0	30247.0
790.0	30377.0
789.0	30266.0
788.0	30552.0
787.0	30365.0
786.0	30524.0
785.0	30186.0
784.0	30352.0
783.0	30661.0
782.0	30532.0
781.0	30433.0
780.0	30359.0
779.0	30521.0
778.0	30455.0
777.0	30462.0
776.0	30606.0
775.0	30540.0
774.0	30695.0
773.0	30636.0
772.0	30857.0
771.0	30628.0
770.0	30562.0
769.0	30962.0
768.0	30854.0
767.0	30717.0
766.0	30711.0
765.0	30736.0
764.0	30817.0
763.0	30906.0
762.0	30860.0
761.0	30752.0
760.0	30933.0
759.0	31321.0
758.0	31226.0
757.0	30971.0
756.0	30943.0
755.0	31122.0
754.0	31014.0
753.0	31165.0
752.0	30944.0
751.0	31003.0
750.0	30856.0
749.0	31029.0
748.0	31098.0
747.0	31247.0
746.0	31394.0
745.0	31533.0
744.0	31096.0
743.0	31488.0
742.0	31215.0
741.0	31245.0
740.0	31614.0
739.0	31565.0
738.0	31260.0
737.0	31384.0
736.0	31527.0
735.0	31428.0
734.0	31517.0
733.0	31492.0
732.0	31559.0
731.0	31321.0
730.0	31466.0
729.0	31695.0
728.0	31741.0
727.0	31946.0
726.0	31373.0
725.0	31533.0
724.0	31499.0
723.0	31831.0
722.0	31657.0
721.0	31811.0
720.0	31653.0
719.0	31651.0
718.0	31642.0
717.0	31897.0
716.0	31948.0
715.0	31844.0
714.0	31921.0
713.0	31571.0
712.0	31561.0
711.0	31772.0
710.0	31901.0
709.0	31798.0
708.0	31860.0
707.0	31784.0
706.0	32001.0
705.0	31957.0
704.0	32094.0
703.0	31985.0
702.0	32109.0
701.0	32131.0
700.0	32159.0
699.0	31946.0
698.0	32286.0
697.0	32264.0
696.0	32070.0
695.0	31897.0
694.0	32079.0
693.0	32322.0
692.0	32061.0
691.0	32328.0
690.0	32298.0
689.0	32260.0
688.0	32361.0
687.0	32462.0
686.0	32399.0
685.0	32345.0
684.0	32409.0
683.0	32294.0
682.0	32566.0
681.0	32529.0
680.0	32313.0
679.0	32447.0
678.0	32408.0
677.0	32659.0
676.0	32563.0
675.0	32585.0
674.0	32415.0
673.0	32298.0
672.0	32497.0
671.0	32557.0
670.0	32461.0
669.0	32805.0
668.0	32652.0
667.0	32572.0
666.0	32657.0
665.0	32596.0
664.0	32650.0
663.0	32633.0
662.0	32635.0
661.0	32426.0
660.0	32822.0
659.0	32904.0
658.0	32965.0
657.0	33056.0
656.0	32689.0
655.0	32881.0
654.0	32851.0
653.0	32757.0
652.0	33268.0
651.0	33043.0
650.0	32758.0
649.0	32871.0
648.0	33238.0
647.0	33037.0
646.0	33060.0
645.0	33187.0
644.0	33238.0
643.0	33285.0
642.0	33402.0
641.0	33461.0
640.0	33278.0
639.0	32959.0
638.0	33281.0
637.0	33208.0
636.0	33297.0
635.0	33247.0
634.0	33380.0
633.0	33422.0
632.0	33414.0
631.0	33261.0
630.0	33354.0
629.0	33404.0
628.0	33551.0
627.0	33823.0
626.0	33429.0
625.0	33555.0
624.0	33526.0
623.0	33339.0
622.0	33544.0
621.0	33676.0
620.0	33570.0
619.0	33651.0
618.0	33570.0
617.0	33593.0
616.0	33538.0
615.0	33834.0
614.0	33724.0
613.0	33765.0
612.0	33926.0
611.0	33672.0
610.0	33803.0
609.0	33975.0
608.0	34030.0
607.0	33892.0
606.0	33677.0
605.0	33651.0
604.0	34011.0
603.0	34292.0
602.0	34197.0
601.0	34337.0
600.0	34229.0
599.0	34276.0
598.0	34194.0
597.0	34523.0
596.0	34400.0
595.0	34352.0
594.0	34371.0
593.0	34239.0
592.0	34418.0
591.0	34507.0
590.0	34593.0
589.0	34449.0
588.0	34310.0
587.0	34624.0
586.0	34450.0
585.0	34450.0
584.0	34535.0
583.0	34726.0
582.0	34816.0
581.0	34730.0
580.0	34644.0
579.0	34975.0
578.0	34851.0
577.0	35205.0
576.0	34741.0
575.0	34803.0
574.0	35016.0
573.0	34950.0
572.0	35010.0
571.0	34858.0
570.0	35038.0
569.0	35309.0
568.0	34999.0
567.0	35014.0
566.0	35293.0
565.0	35269.0
564.0	35370.0
563.0	35622.0
562.0	35433.0
561.0	35786.0
560.0	35753.0
559.0	35538.0
558.0	35594.0
557.0	35785.0
556.0	35715.0
555.0	35868.0
554.0	35787.0
553.0	36034.0
552.0	35709.0
551.0	35734.0
550.0	35913.0
549.0	35578.0
548.0	35434.0
547.0	35789.0
546.0	35775.0
545.0	35595.0
544.0	35622.0
543.0	35299.0
542.0	35227.0
541.0	35609.0
540.0	35589.0
539.0	35580.0
538.0	35709.0
537.0	35832.0
536.0	36323.0
535.0	37292.0
534.0	39826.0
533.0	45266.0
532.0	49637.0
531.0	46818.0
530.0	40714.0
529.0	36664.0
528.0	35462.0
527.0	35098.0
526.0	34947.0
525.0	35131.0
524.0	35000.0
523.0	34412.0
522.0	34577.0
521.0	34659.0
520.0	34570.0
519.0	34911.0
518.0	35092.0
517.0	35065.0
516.0	34994.0
515.0	34951.0
514.0	35044.0
513.0	35086.0
512.0	34975.0
511.0	34781.0
510.0	34821.0
509.0	35065.0
508.0	34823.0
507.0	35048.0
506.0	35151.0
505.0	35106.0
504.0	35291.0
503.0	35421.0
502.0	35201.0
501.0	35482.0
500.0	35299.0
499.0	35409.0
498.0	35434.0
497.0	35338.0
496.0	35443.0
495.0	35381.0
494.0	35507.0
493.0	35477.0
492.0	35266.0
491.0	35462.0
490.0	35584.0
489.0	35240.0
488.0	35340.0
487.0	35801.0
486.0	35758.0
485.0	35506.0
484.0	35746.0
483.0	35805.0
482.0	35423.0
481.0	35644.0
480.0	35626.0
479.0	35868.0
478.0	35677.0
477.0	35679.0
476.0	35816.0
475.0	35515.0
474.0	35597.0
473.0	35989.0
472.0	35901.0
471.0	36088.0
470.0	36040.0
469.0	35816.0
468.0	35904.0
467.0	35805.0
466.0	36121.0
465.0	36067.0
464.0	36151.0
463.0	36161.0
462.0	36022.0
461.0	35883.0
460.0	35999.0
459.0	36237.0
458.0	36268.0
457.0	36428.0
456.0	35979.0
455.0	36150.0
454.0	36505.0
453.0	36258.0
452.0	36137.0
451.0	36403.0
450.0	36453.0
449.0	36514.0
448.0	36365.0
447.0	36647.0
446.0	36489.0
445.0	36564.0
444.0	36559.0
443.0	36412.0
442.0	36259.0
441.0	36697.0
440.0	36726.0
439.0	36585.0
438.0	36732.0
437.0	36751.0
436.0	36817.0
435.0	36942.0
434.0	37184.0
433.0	36891.0
432.0	36698.0
431.0	36960.0
430.0	36896.0
429.0	37013.0
428.0	37020.0
427.0	37026.0
426.0	36941.0
425.0	37239.0
424.0	37379.0
423.0	36848.0
422.0	37427.0
421.0	37570.0
420.0	37313.0
419.0	37224.0
418.0	37449.0
417.0	37299.0
416.0	37248.0
415.0	37173.0
414.0	37640.0
413.0	37707.0
412.0	37635.0
411.0	37601.0
410.0	37464.0
409.0	37634.0
408.0	37591.0
407.0	37528.0
406.0	37763.0
405.0	37642.0
404.0	37601.0
403.0	37917.0
402.0	38072.0
401.0	38277.0
400.0	38315.0
399.0	38463.0
398.0	38302.0
397.0	38422.0
396.0	38049.0
395.0	38072.0
394.0	38066.0
393.0	38147.0
392.0	38082.0
391.0	38183.0
390.0	38230.0
389.0	38211.0
388.0	38293.0
387.0	38226.0
386.0	38012.0
385.0	38269.0
384.0	38208.0
383.0	38511.0
382.0	38238.0
381.0	38512.0
380.0	38610.0
379.0	38345.0
378.0	38502.0
377.0	38548.0
376.0	38930.0
375.0	38972.0
374.0	38792.0
373.0	38594.0
372.0	38639.0
371.0	38885.0
370.0	38954.0
369.0	38928.0
368.0	38809.0
367.0	39069.0
366.0	38931.0
365.0	38791.0
364.0	38775.0
363.0	38799.0
362.0	38506.0
361.0	38982.0
360.0	39073.0
359.0	39262.0
358.0	39015.0
357.0	39190.0
356.0	39487.0
355.0	39359.0
354.0	39287.0
353.0	39568.0
352.0	39806.0
351.0	39923.0
350.0	39993.0
349.0	40117.0
348.0	40198.0
347.0	40480.0
346.0	40496.0
345.0	40755.0
344.0	40385.0
343.0	40527.0
342.0	40559.0
341.0	40208.0
340.0	40255.0
339.0	40060.0
338.0	39755.0
337.0	39504.0
336.0	39036.0
335.0	38732.0
334.0	38451.0
333.0	38217.0
332.0	38041.0
331.0	37728.0
330.0	37489.0
329.0	37785.0
328.0	37796.0
327.0	38430.0
326.0	38774.0
325.0	39081.0
324.0	39672.0
323.0	40370.0
322.0	41300.0
321.0	41569.0
320.0	42430.0
319.0	43186.0
318.0	43597.0
317.0	43932.0
316.0	44295.0
315.0	44596.0
314.0	44519.0
313.0	44922.0
312.0	44423.0
311.0	43706.0
310.0	42852.0
309.0	41567.0
308.0	39555.0
307.0	37482.0
306.0	35070.0
305.0	32971.0
304.0	31147.0
303.0	29347.0
302.0	27253.0
301.0	25330.0
300.0	23638.0
299.0	22311.0
298.0	21807.0
297.0	21291.0
296.0	21432.0
295.0	22300.0
294.0	24141.0
293.0	26182.0
292.0	29197.0
291.0	33285.0
290.0	36240.0
289.0	37439.0
288.0	39855.0
287.0	46998.0
286.0	66969.0
285.0	123889.0
284.0	210034.0
283.0	148955.0
282.0	37925.0
281.0	7673.0
280.0	4633.0
279.0	3373.0
278.0	2407.0
277.0	1873.0
276.0	1667.0
275.0	1499.0
274.0	1464.0
273.0	1477.0
272.0	1446.0
271.0	1441.0
270.0	1376.0
269.0	1399.0
268.0	1413.0
267.0	1353.0
266.0	1307.0
265.0	1334.0
264.0	1282.0
263.0	1254.0
262.0	1228.0
261.0	1279.0
260.0	1282.0
259.0	1272.0
258.0	1288.0
257.0	1308.0
256.0	1324.0
255.0	1241.0
254.0	1254.0
253.0	1284.0
252.0	1260.0
251.0	1300.0
250.0	1293.0
249.0	1282.0
248.0	1305.0
247.0	1280.0
246.0	1241.0
245.0	1247.0
244.0	1276.0
243.0	1303.0
242.0	1342.0
241.0	1292.0
240.0	1311.0
239.0	1296.0
238.0	1300.0
237.0	1295.0
236.0	1293.0
235.0	1291.0
234.0	1293.0
233.0	1308.0
232.0	1289.0
231.0	1288.0
230.0	1279.0
229.0	1217.0
228.0	1281.0
227.0	1348.0
226.0	1330.0
225.0	1335.0
224.0	1276.0
223.0	1313.0
222.0	1288.0
221.0	1265.0
220.0	1293.0
219.0	1282.0
218.0	1230.0
217.0	1243.0
216.0	1267.0
215.0	1309.0
214.0	1346.0
213.0	1287.0
212.0	1307.0
211.0	1292.0
210.0	1300.0
209.0	1328.0
208.0	1290.0
207.0	1267.0
206.0	1305.0
205.0	1271.0
204.0	1283.0
203.0	1292.0
202.0	1291.0
201.0	1296.0
200.0	1349.0
199.0	1321.0
198.0	1269.0
197.0	1314.0
196.0	1333.0
195.0	1297.0
194.0	1307.0
193.0	1335.0
192.0	1330.0
191.0	1344.0
190.0	1328.0
189.0	1282.0
188.0	1292.0
187.0	1358.0
186.0	1317.0
185.0	1290.0
184.0	1291.0
183.0	1363.0
182.0	1321.0
181.0	1270.0
180.0	1295.0
179.0	1292.0
178.0	1304.0
177.0	1333.0
176.0	1301.0
175.0	1281.0
174.0	1363.0
173.0	1351.0
172.0	1302.0
171.0	1270.0
170.0	1326.0
169.0	1357.0
168.0	1364.0
167.0	1368.0
166.0	1337.0
165.0	1299.0
164.0	1299.0
163.0	1328.0
162.0	1284.0
161.0	1293.0
160.0	1319.0
159.0	1282.0
158.0	1313.0
157.0	1339.0
156.0	1328.0
155.0	1360.0
154.0	1392.0
153.0	1454.0
152.0	1436.0
151.0	1400.0
150.0	1374.0
149.0	1334.0
148.0	1342.0
147.0	1337.0
146.0	1292.0
145.0	1273.0
144.0	1291.0
143.0	1342.0
142.0	1310.0
141.0	1291.0
140.0	1344.0
139.0	1336.0
138.0	1257.0
137.0	1259.0
136.0	1345.0
135.0	1329.0
134.0	1375.0
133.0	1374.0
132.0	1319.0
131.0	1330.0
130.0	1326.0
129.0	1380.0
128.0	1388.0
127.0	1374.0
126.0	1349.0
125.0	1353.0
124.0	1337.0
123.0	1380.0
122.0	1357.0
121.0	1293.0
120.0	1379.0
119.0	1321.0
118.0	1334.0
117.0	1372.0
116.0	1367.0
115.0	1320.0
114.0	1298.0
113.0	1345.0
112.0	1337.0
111.0	1315.0
110.0	1331.0
109.0	1317.0
108.0	1331.0
107.0	1335.0
106.0	1328.0
105.0	1369.0
104.0	1392.0
103.0	1446.0
102.0	1444.0
101.0	1436.0
100.0	1432.0
99.0	1427.0
98.0	1388.0
97.0	1368.0
96.0	1361.0
95.0	1347.0
94.0	1361.0
93.0	1328.0
92.0	1334.0
91.0	1345.0
90.0	1375.0
89.0	1332.0
88.0	1365.0
87.0	1360.0
86.0	1357.0
85.0	1384.0
84.0	1383.0
83.0	1431.0
82.0	1445.0
81.0	1454.0
80.0	1380.0
79.0	1434.0
78.0	1464.0
77.0	1460.0
76.0	1458.0
75.0	1465.0
74.0	1402.0
73.0	1428.0
72.0	1508.0
71.0	1452.0
70.0	1416.0
69.0	1418.0
68.0	1432.0
67.0	1396.0
66.0	1361.0
65.0	1417.0
64.0	1396.0
63.0	1447.0
62.0	1454.0
61.0	1420.0
60.0	1383.0
59.0	1411.0
58.0	1413.0
57.0	1419.0
56.0	1407.0
55.0	1489.0
54.0	1470.0
53.0	1502.0
52.0	1534.0
51.0	1540.0
50.0	1595.0
49.0	1616.0
48.0	1600.0
47.0	1632.0
46.0	1573.0
45.0	1614.0
44.0	1619.0
43.0	1632.0
42.0	1563.0
41.0	1563.0
40.0	1561.0
39.0	1472.0
38.0	1497.0
37.0	1428.0
36.0	1308.0
35.0	1246.0
34.0	1260.0
33.0	1251.0
32.0	1173.0
31.0	1141.0
30.0	1180.0
29.0	1238.0
28.0	1347.0
27.0	1399.0
26.0	1475.0
25.0	1563.0
24.0	1587.0
23.0	1681.0
22.0	1853.0
21.0	2117.0
20.0	2389.0
19.0	2549.0
18.0	2544.0
17.0	2563.0
16.0	2462.0
15.0	2297.0
14.0	2101.0
13.0	1983.0
12.0	1712.0
11.0	1466.0
10.0	1312.0
9.0	1199.0
8.0	1044.0
7.0	874.0
6.0	735.0
5.0	512.0
4.0	383.0
3.0	248.0
2.0	146.0
1.0	85.0
0.0	40.0
-1.0	15.0
-2.0	7.0
-3.0	2.0
-4.0	3.0
-5.0	3.0