File: XPS/Casa format/UT 18 Ap location T1 in image-0.6322_UT18ApTi3s_Ti3s.txt
BE/eV	PE: 20.0 eV
74.0	146.0
73.9	160.0
73.8	151.0
73.7	150.0
73.6	168.0
73.5	149.0
73.4	134.0
73.3	134.0
73.2	149.0
73.1	139.0
73.0	154.0
72.9	143.0
72.8	133.0
72.7	143.0
72.6	146.0
72.5	148.0
72.4	132.0
72.3	141.0
72.2	138.0
72.1	144.0
72.0	133.0
71.9	152.0
71.8	144.0
71.7	162.0
71.6	156.0
71.5	151.0
71.4	139.0
71.3	157.0
71.2	154.0
71.1	131.0
71.0	145.0
70.9	148.0
70.8	142.0
70.7	130.0
70.6	127.0
70.5	142.0
70.4	158.0
70.3	154.0
70.2	146.0
70.1	139.0
70.0	144.0
69.9	152.0
69.8	160.0
69.7	131.0
69.6	149.0
69.5	152.0
69.4	170.0
69.3	159.0
69.2	150.0
69.1	131.0
69.0	148.0
68.9	149.0
68.8	125.0
68.7	140.0
68.6	148.0
68.5	160.0
68.4	140.0
68.3	136.0
68.2	136.0
68.1	138.0
68.0	170.0
67.9	159.0
67.8	151.0
67.7	147.0
67.6	134.0
67.5	140.0
67.4	154.0
67.3	146.0
67.2	143.0
67.1	141.0
67.0	152.0
66.9	137.0
66.8	134.0
66.7	154.0
66.6	141.0
66.5	119.0
66.4	122.0
66.3	155.0
66.2	141.0
66.1	157.0
66.0	151.0
65.9	135.0
65.8	156.0
65.7	160.0
65.6	146.0
65.5	122.0
65.4	130.0
65.3	145.0
65.2	144.0
65.1	165.0
65.0	176.0
64.9	150.0
64.8	133.0
64.7	153.0
64.6	151.0
64.5	143.0
64.4	143.0
64.3	126.0
64.2	139.0
64.1	151.0
64.0	159.0
63.9	140.0
63.8	144.0
63.7	130.0
63.6	135.0
63.5	150.0
63.4	134.0
63.3	152.0
63.2	148.0
63.1	143.0
63.0	132.0
62.9	131.0
62.8	137.0
62.7	132.0
62.6	154.0
62.5	139.0
62.4	155.0
62.3	144.0
62.2	150.0
62.1	135.0
62.0	152.0
61.9	162.0
61.8	154.0
61.7	154.0
61.6	140.0
61.5	139.0
61.4	130.0
61.3	145.0
61.2	150.0
61.1	143.0
61.0	165.0
60.9	140.0
60.8	154.0
60.7	140.0
60.6	146.0
60.5	145.0
60.4	134.0
60.3	134.0
60.2	134.0
60.1	152.0
60.0	149.0
59.9	128.0
59.8	143.0
59.7	136.0
59.6	135.0
59.5	142.0
59.4	147.0
59.3	126.0
59.2	141.0
59.1	145.0
59.0	149.0
58.9	151.0
58.8	159.0
58.7	135.0
58.6	151.0
58.5	133.0
58.4	136.0
58.3	154.0
58.2	168.0
58.1	141.0
58.0	142.0
57.9	143.0
57.8	161.0
57.7	155.0
57.6	151.0
57.5	149.0
57.4	150.0
57.3	135.0
57.2	144.0
57.1	138.0
57.0	138.0
56.9	149.0
56.8	156.0
56.7	128.0
56.6	138.0
56.5	139.0
56.4	153.0
56.3	129.0
56.2	145.0
56.1	151.0
56.0	155.0
55.9	147.0
55.8	152.0
55.7	161.0
55.6	147.0
55.5	158.0
55.4	144.0
55.3	159.0
55.2	148.0
55.1	128.0
55.0	144.0
54.9	143.0
54.8	155.0
54.7	136.0
54.6	152.0
54.5	148.0
54.4	148.0
54.3	137.0
54.2	164.0
54.1	151.0
54.0	136.0
53.9	137.0
53.8	151.0
53.7	177.0
53.6	150.0
53.5	158.0
53.4	163.0
53.3	136.0
53.2	143.0
53.1	147.0
53.0	148.0
52.9	163.0
52.8	161.0
52.7	160.0
52.6	145.0
52.5	144.0
52.4	163.0
52.3	159.0
52.2	144.0
52.1	142.0
52.0	168.0
51.9	163.0
51.8	160.0
51.7	155.0
51.6	150.0
51.5	141.0
51.4	145.0
51.3	166.0
51.2	174.0
51.1	158.0
51.0	151.0
50.9	178.0
50.8	158.0
50.7	175.0
50.6	166.0
50.5	149.0
50.4	152.0
50.3	159.0
50.2	158.0
50.1	150.0
50.0	167.0
49.9	151.0
49.8	153.0
49.7	145.0
49.6	167.0
49.5	152.0
49.4	170.0
49.3	162.0
49.2	165.0
49.1	171.0
49.0	164.0
48.9	167.0
48.8	164.0
48.7	157.0
48.6	160.0
48.5	179.0
48.4	173.0
48.3	166.0
48.2	166.0
48.1	147.0
48.0	166.0
47.9	167.0
47.8	166.0
47.7	171.0
47.6	182.0
47.5	173.0
47.4	182.0
47.3	168.0
47.2	145.0
47.1	154.0
47.0	164.0
46.9	183.0
46.8	182.0
46.7	166.0
46.6	158.0
46.5	160.0
46.4	160.0
46.3	169.0
46.2	166.0
46.1	184.0
46.0	177.0
45.9	171.0
45.8	167.0
45.7	165.0
45.6	172.0
45.5	172.0
45.4	161.0
45.3	142.0
45.2	175.0
45.1	172.0
45.0	174.0
44.9	163.0
44.8	172.0
44.7	167.0
44.6	180.0
44.5	186.0
44.4	171.0
44.3	172.0
44.2	164.0
44.1	167.0
44.0	160.0