File: XPS/Casa format/UT 18 Ap location T1 in image_UT18ApCl2s_Cl2s.txt
BE/eV	PE: 20.0 eV
285.0	1934.0
284.9	2085.0
284.8	2345.0
284.7	2672.0
284.6	3097.0
284.5	3890.0
284.4	4856.0
284.3	6564.0
284.2	8921.0
284.1	11735.0
284.0	14281.0
283.9	14926.0
283.8	12881.0
283.7	9239.0
283.6	5575.0
283.5	3007.0
283.4	1765.0
283.3	1121.0
283.2	820.0
283.1	597.0
283.0	437.0
282.9	364.0
282.8	262.0
282.7	213.0
282.6	178.0
282.5	162.0
282.4	162.0
282.3	138.0
282.2	126.0
282.1	107.0
282.0	106.0
281.9	89.0
281.8	85.0
281.7	85.0
281.6	84.0
281.5	76.0
281.4	74.0
281.3	72.0
281.2	65.0
281.1	68.0
281.0	69.0
280.9	52.0
280.8	60.0
280.7	60.0
280.6	40.0
280.5	44.0
280.4	56.0
280.3	53.0
280.2	43.0
280.1	49.0
280.0	45.0
279.9	36.0
279.8	40.0
279.7	43.0
279.6	37.0
279.5	35.0
279.4	30.0
279.3	31.0
279.2	34.0
279.1	28.0
279.0	35.0
278.9	31.0
278.8	29.0
278.7	28.0
278.6	32.0
278.5	32.0
278.4	27.0
278.3	27.0
278.2	27.0
278.1	34.0
278.0	28.0
277.9	39.0
277.8	41.0
277.7	29.0
277.6	24.0
277.5	27.0
277.4	37.0
277.3	34.0
277.2	27.0
277.1	38.0
277.0	26.0
276.9	35.0
276.8	32.0
276.7	29.0
276.6	23.0
276.5	21.0
276.4	35.0
276.3	34.0
276.2	38.0
276.1	32.0
276.0	26.0
275.9	21.0
275.8	19.0
275.7	22.0
275.6	34.0
275.5	30.0
275.4	28.0
275.3	28.0
275.2	30.0
275.1	32.0
275.0	32.0
274.9	35.0
274.8	32.0
274.7	29.0
274.6	32.0
274.5	30.0
274.4	33.0
274.3	36.0
274.2	28.0
274.1	27.0
274.0	31.0
273.9	30.0
273.8	25.0
273.7	22.0
273.6	24.0
273.5	31.0
273.4	28.0
273.3	30.0
273.2	23.0
273.1	31.0
273.0	28.0
272.9	26.0
272.8	36.0
272.7	32.0
272.6	32.0
272.5	31.0
272.4	31.0
272.3	33.0
272.2	28.0
272.1	23.0
272.0	32.0
271.9	29.0
271.8	33.0
271.7	32.0
271.6	30.0
271.5	30.0
271.4	34.0
271.3	33.0
271.2	33.0
271.1	31.0
271.0	20.0
270.9	27.0
270.8	35.0
270.7	25.0
270.6	30.0
270.5	32.0
270.4	27.0
270.3	29.0
270.2	32.0
270.1	31.0
270.0	28.0
269.9	21.0
269.8	27.0
269.7	28.0
269.6	23.0
269.5	34.0
269.4	33.0
269.3	33.0
269.2	25.0
269.1	31.0
269.0	26.0
268.9	23.0
268.8	33.0
268.7	34.0
268.6	34.0
268.5	33.0
268.4	29.0
268.3	33.0
268.2	33.0
268.1	32.0
268.0	33.0
267.9	27.0
267.8	24.0
267.7	22.0
267.6	28.0
267.5	28.0
267.4	25.0
267.3	30.0
267.2	29.0
267.1	31.0
267.0	24.0
266.9	27.0
266.8	35.0
266.7	34.0
266.6	27.0
266.5	25.0
266.4	32.0
266.3	30.0
266.2	25.0
266.1	28.0
266.0	27.0
265.9	27.0
265.8	26.0
265.7	29.0
265.6	31.0
265.5	29.0
265.4	22.0
265.3	28.0
265.2	32.0
265.1	34.0
265.0	32.0
264.9	28.0
264.8	30.0
264.7	30.0
264.6	30.0
264.5	22.0
264.4	22.0
264.3	23.0
264.2	26.0
264.1	25.0
264.0	24.0
263.9	34.0
263.8	37.0
263.7	34.0
263.6	30.0
263.5	26.0
263.4	24.0
263.3	34.0
263.2	38.0
263.1	25.0
263.0	24.0
262.9	29.0
262.8	24.0
262.7	28.0
262.6	24.0
262.5	33.0
262.4	33.0
262.3	27.0
262.2	27.0
262.1	29.0
262.0	31.0
261.9	25.0
261.8	23.0
261.7	30.0
261.6	40.0
261.5	26.0
261.4	25.0
261.3	20.0
261.2	26.0
261.1	26.0
261.0	28.0
260.9	20.0
260.8	23.0
260.7	29.0
260.6	31.0
260.5	39.0
260.4	35.0
260.3	30.0
260.2	23.0
260.1	25.0
260.0	22.0
259.9	20.0
259.8	32.0
259.7	33.0
259.6	40.0
259.5	30.0
259.4	31.0
259.3	26.0
259.2	30.0
259.1	22.0
259.0	25.0
258.9	20.0
258.8	23.0
258.7	30.0
258.6	26.0
258.5	28.0
258.4	28.0
258.3	25.0
258.2	41.0
258.1	30.0
258.0	31.0
257.9	31.0
257.8	35.0
257.7	31.0
257.6	32.0
257.5	30.0
257.4	37.0
257.3	32.0
257.2	20.0
257.1	28.0
257.0	26.0
256.9	24.0
256.8	25.0
256.7	24.0
256.6	28.0
256.5	24.0
256.4	30.0
256.3	22.0
256.2	22.0
256.1	24.0
256.0	26.0
255.9	30.0
255.8	32.0
255.7	27.0
255.6	28.0
255.5	27.0
255.4	26.0
255.3	28.0
255.2	33.0
255.1	33.0
255.0	24.0